WordItem,WordColour,trials.thisRepN,trials.thisTrialN,trials.thisN,trials.thisIndex,trials_2.thisRepN,trials_2.thisTrialN,trials_2.thisN,trials_2.thisIndex,thisRow.t,notes,trial.started,text.started,key_resp.started,trial.stopped,key_resp.keys,key_resp.rt,key_resp.duration,instructions.started,text_2.started,key_resp_2.started,instructions.stopped,key_resp_2.keys,key_resp_2.rt,key_resp_2.duration,studytrial.started,text_3.started,studytrial.stopped,blankscreen.started,text_4.started,blankscreen.stopped,wait.started,textwait.started,key_resp_3.started,wait.stopped,key_resp_3.keys,key_resp_3.rt,key_resp_3.duration,test_trials.started,text_5.started,key_resp_4.started,test_trials.stopped,key_resp_4.keys,key_resp_4.rt,key_resp_4.duration,end.started,text_6.started,text_6.stopped,end.stopped,participant,session,date,expName,psychopyVersion,frameRate,expStart
,,,,,,,,,,,,0.0038465,0.0119182,0.0119182,1.0184553,space,0.9847495,None,,,,,,,,,,,,,,,,,,,,,,,,,,,,,,,,47740,1,2024-11-26_12h21.46.483,short term memory,2024.1.5,None,2024-11-26 12h21.55.599708 +0530
,,,,,,,,,,,,,,,,,,,1.0185126,1.0250622,1.0250622,1.4272162,space,0.3941082,None,,,,,,,,,,,,,,,,,,,,,,,,,47740,1,2024-11-26_12h21.46.483,short term memory,2024.1.5,None,2024-11-26 12h21.55.599708 +0530
Brazil,Blue,0,0,0,6,,,,,1.4548749,,,,,,,,,,,,,,,,1.4414361,1.4548749,3.4416661,3.4417054,3.4579916,3.942347,,,,,,,,,,,,,,,,,,,47740,1,2024-11-26_12h21.46.483,short term memory,2024.1.5,None,2024-11-26 12h21.55.599708 +0530
Japan,Red,0,1,1,0,,,,,3.9581428,,,,,,,,,,,,,,,,3.9427336,3.9581428,5.941756,5.9417802,5.9581893,6.4416172,,,,,,,,,,,,,,,,,,,47740,1,2024-11-26_12h21.46.483,short term memory,2024.1.5,None,2024-11-26 12h21.55.599708 +0530
Egypt,Red,0,2,2,8,,,,,6.458056,,,,,,,,,,,,,,,,6.4420839,6.458056,8.4416107,8.4416435,8.4579757,8.9415825,,,,,,,,,,,,,,,,,,,47740,1,2024-11-26_12h21.46.483,short term memory,2024.1.5,None,2024-11-26 12h21.55.599708 +0530
India,Red,0,3,3,1,,,,,8.9582631,,,,,,,,,,,,,,,,8.9420661,8.9582631,10.9417333,10.9417639,10.9582183,11.4415881,,,,,,,,,,,,,,,,,,,47740,1,2024-11-26_12h21.46.483,short term memory,2024.1.5,None,2024-11-26 12h21.55.599708 +0530
France,Blue,0,4,4,3,,,,,11.4578899,,,,,,,,,,,,,,,,11.4419971,11.4578899,13.4415784,13.4416127,13.458043,13.9414455,,,,,,,,,,,,,,,,,,,47740,1,2024-11-26_12h21.46.483,short term memory,2024.1.5,None,2024-11-26 12h21.55.599708 +0530
Germany,None,0,5,5,9,,,,,13.9595749,,,,,,,,,,,,,,,,13.9421665,13.9595749,15.9420894,15.9421195,15.9581152,16.4413434,,,,,,,,,,,,,,,,,,,47740,1,2024-11-26_12h21.46.483,short term memory,2024.1.5,None,2024-11-26 12h21.55.599708 +0530
Canada,Red,0,6,6,7,,,,,16.4579051,,,,,,,,,,,,,,,,16.4417023,16.4579051,18.4413902,18.4414129,18.4581591,18.9413301,,,,,,,,,,,,,,,,,,,47740,1,2024-11-26_12h21.46.483,short term memory,2024.1.5,None,2024-11-26 12h21.55.599708 +0530
Argentina,Red,0,7,7,5,,,,,18.9577764,,,,,,,,,,,,,,,,18.9420176,18.9577764,20.9413804,20.9414021,20.9577739,21.4412852,,,,,,,,,,,,,,,,,,,47740,1,2024-11-26_12h21.46.483,short term memory,2024.1.5,None,2024-11-26 12h21.55.599708 +0530
Africa ,Red,0,8,8,2,,,,,21.4577758,,,,,,,,,,,,,,,,21.4418531,21.4577758,23.4413653,23.4413856,23.457736,23.9423055,,,,,,,,,,,,,,,,,,,47740,1,2024-11-26_12h21.46.483,short term memory,2024.1.5,None,2024-11-26 12h21.55.599708 +0530
Russia,Red,0,9,9,4,,,,,23.9586473,,,,,,,,,,,,,,,,23.9429007,23.9586473,25.9414087,25.9414331,25.9578362,26.4412726,,,,,,,,,,,,,,,,,,,47740,1,2024-11-26_12h21.46.483,short term memory,2024.1.5,None,2024-11-26 12h21.55.599708 +0530
,,,,,,,,,,,,,,,,,,,,,,,,,,,,,,,,26.4413755,26.4579417,26.4579417,28.1433983,space,1.6836397,None,,,,,,,,,,,,47740,1,2024-11-26_12h21.46.483,short term memory,2024.1.5,None,2024-11-26 12h21.55.599708 +0530
England,None,,,,,0,0,0,11,28.166179,,,,,,,,,,,,,,,,,,,,,,,,,,,,,28.1563808,28.166179,28.166179,29.7099426,y,1.5318163,None,,,,,47740,1,2024-11-26_12h21.46.483,short term memory,2024.1.5,None,2024-11-26 12h21.55.599708 +0530
Russia,Red,,,,,0,1,1,4,29.7265085,,,,,,,,,,,,,,,,,,,,,,,,,,,,,29.71441,29.7265085,29.7265085,31.0595623,y,1.327305,None,,,,,47740,1,2024-11-26_12h21.46.483,short term memory,2024.1.5,None,2024-11-26 12h21.55.599708 +0530
Europe,None,,,,,0,2,2,14,31.0742809,,,,,,,,,,,,,,,,,,,,,,,,,,,,,31.060234,31.0742809,31.0742809,31.7256391,y,0.6346436,None,,,,,47740,1,2024-11-26_12h21.46.483,short term memory,2024.1.5,None,2024-11-26 12h21.55.599708 +0530
India,Red,,,,,0,3,3,1,31.7420832,,,,,,,,,,,,,,,,,,,,,,,,,,,,,31.7265129,31.7420832,31.7420832,33.0596726,y,1.309608,None,,,,,47740,1,2024-11-26_12h21.46.483,short term memory,2024.1.5,None,2024-11-26 12h21.55.599708 +0530
Brazil,Blue,,,,,0,4,4,6,33.0746193,,,,,,,,,,,,,,,,,,,,,,,,,,,,,33.0603722,33.0746193,33.0746193,33.509035,n,0.4239025,None,,,,,47740,1,2024-11-26_12h21.46.483,short term memory,2024.1.5,None,2024-11-26 12h21.55.599708 +0530
Germany,None,,,,,0,5,5,9,33.5242432,,,,,,,,,,,,,,,,,,,,,,,,,,,,,33.5096252,33.5242432,33.5242432,33.976064,y,0.4496582,None,,,,,47740,1,2024-11-26_12h21.46.483,short term memory,2024.1.5,None,2024-11-26 12h21.55.599708 +0530
Turkey,None,,,,,0,6,6,10,33.9908623,,,,,,,,,,,,,,,,,,,,,,,,,,,,,33.9767573,33.9908623,33.9908623,34.4610026,n,0.4553967,None,,,,,47740,1,2024-11-26_12h21.46.483,short term memory,2024.1.5,None,2024-11-26 12h21.55.599708 +0530
France,Blue,,,,,0,7,7,3,34.4741538,,,,,,,,,,,,,,,,,,,,,,,,,,,,,34.4617672,34.4741538,34.4741538,34.8757435,n,0.3876373,None,,,,,47740,1,2024-11-26_12h21.46.483,short term memory,2024.1.5,None,2024-11-26 12h21.55.599708 +0530
America,None,,,,,0,8,8,12,34.8909282,,,,,,,,,,,,,,,,,,,,,,,,,,,,,34.8764787,34.8909282,34.8909282,35.1591831,y,0.2642354,None,,,,,47740,1,2024-11-26_12h21.46.483,short term memory,2024.1.5,None,2024-11-26 12h21.55.599708 +0530
Egypt,Red,,,,,0,9,9,8,35.1742238,,,,,,,,,,,,,,,,,,,,,,,,,,,,,35.1599165,35.1742238,35.1742238,35.4924849,y,0.3037671,None,,,,,47740,1,2024-11-26_12h21.46.483,short term memory,2024.1.5,None,2024-11-26 12h21.55.599708 +0530
Canada,Red,,,,,0,10,10,7,35.5074778,,,,,,,,,,,,,,,,,,,,,,,,,,,,,35.4934377,35.5074778,35.5074778,35.8262556,n,0.3120844,None,,,,,47740,1,2024-11-26_12h21.46.483,short term memory,2024.1.5,None,2024-11-26 12h21.55.599708 +0530
Africa ,Red,,,,,0,11,11,2,35.8409772,,,,,,,,,,,,,,,,,,,,,,,,,,,,,35.8269296,35.8409772,35.8409772,36.1425306,y,0.2867986,None,,,,,47740,1,2024-11-26_12h21.46.483,short term memory,2024.1.5,None,2024-11-26 12h21.55.599708 +0530
Japan,Red,,,,,0,12,12,0,36.1581758,,,,,,,,,,,,,,,,,,,,,,,,,,,,,36.1434588,36.1581758,36.1581758,36.4421182,y,0.2746067,None,,,,,47740,1,2024-11-26_12h21.46.483,short term memory,2024.1.5,None,2024-11-26 12h21.55.599708 +0530
China,None,,,,,0,13,13,13,36.4575972,,,,,,,,,,,,,,,,,,,,,,,,,,,,,36.4426592,36.4575972,36.4575972,36.7423091,y,0.2773067,None,,,,,47740,1,2024-11-26_12h21.46.483,short term memory,2024.1.5,None,2024-11-26 12h21.55.599708 +0530
Argentina,Red,,,,,0,14,14,5,36.7574929,,,,,,,,,,,,,,,,,,,,,,,,,,,,,36.7429733,36.7574929,36.7574929,37.0093889,n,0.2360762,None,,,,,47740,1,2024-11-26_12h21.46.483,short term memory,2024.1.5,None,2024-11-26 12h21.55.599708 +0530
,,,,,,,,,,,,,,,,,,,,,,,,,,,,,,,,,,,,,,,,,,,,,,37.0099446,37.0242394,40.0241654,40.008903,47740,1,2024-11-26_12h21.46.483,short term memory,2024.1.5,None,2024-11-26 12h21.55.599708 +0530
