trials.thisRepN,trials.thisTrialN,trials.thisN,trials.thisIndex,thisRow.t,notes,trial.started,num_distr,fixation.started,target.started,mouse.started,fixation.stopped,trial.stopped,mouse.x,mouse.y,mouse.leftButton,mouse.midButton,mouse.rightButton,mouse.time,mouse.clicked_name,participant,session,date,expName,psychopyVersion,frameRate,expStart,
0,0,0,0,0.04470329999458045,,0.007947199992486276,5,0.04470329999458045,0.04470329999458045,0.034298499987926334,1.0544638999999734,1.9387011999933748,[-0.4691666666666667],[0.08083333333333333],[1],[0],[0],[1.9034601000021212],['target'],067869,001,2024-10-10_16h13.41.212,visual search,2024.1.5,None,2024-10-10 16h13.49.054253 +0530,
1,0,1,0,1.9968871000019135,,1.9443288000038592,10,1.9968871000019135,1.9968871000019135,0.03548989999399055,3.00765319999482,3.684383500003605,[-0.19166666666666668],[-0.4091666666666667],[1],[0],[0],[1.7047947999963071],['target'],067869,001,2024-10-10_16h13.41.212,visual search,2024.1.5,None,2024-10-10 16h13.49.054253 +0530,
2,0,2,0,3.7202076999965357,,3.689826300003915,5,3.7202076999965357,3.7202076999965357,0.021117700001923367,4.721637399998144,5.188882699992973,[0.13666666666666666],[0.10416666666666667],[1],[0],[0],[1.4784081000107108],['target'],067869,001,2024-10-10_16h13.41.212,visual search,2024.1.5,None,2024-10-10 16h13.49.054253 +0530,
3,0,3,0,5.223089699997217,,5.193032800001674,5,5.223089699997217,5.223089699997217,0.020387800002936274,6.237610700001824,6.674836799997138,[0.36833333333333335],[0.25416666666666665],[1],[0],[0],[1.4618156000069575],['target'],067869,001,2024-10-10_16h13.41.212,visual search,2024.1.5,None,2024-10-10 16h13.49.054253 +0530,
4,0,4,0,6.7074298999941675,,6.678105999992113,5,6.7074298999941675,6.7074298999941675,0.018732700002146885,7.721996499996749,8.038409000000684,[0.03],[-0.0725],[1],[0],[0],[1.3417398999881698],['target'],067869,001,2024-10-10_16h13.41.212,visual search,2024.1.5,None,2024-10-10 16h13.49.054253 +0530,
5,0,5,0,8.09358109999448,,8.042580199995427,10,8.09358109999448,8.09358109999448,0.03493809999781661,9.121027100001811,10.336061499998323,[0.43083333333333335],[-0.30416666666666664],[1],[0],[0],[2.258877100000973],['target'],067869,001,2024-10-10_16h13.41.212,visual search,2024.1.5,None,2024-10-10 16h13.49.054253 +0530,
6,0,6,0,10.39633909999975,,10.339285299996845,10,10.39633909999975,10.39633909999975,0.0348626999912085,11.408233099995414,12.026602600002661,[0.39416666666666667],[0.13583333333333333],[1],[0],[0],[1.6526111999992281],['target'],067869,001,2024-10-10_16h13.41.212,visual search,2024.1.5,None,2024-10-10 16h13.49.054253 +0530,
7,0,7,0,12.058484299996053,,12.029941300002974,5,12.058484299996053,12.058484299996053,0.019937799996114336,13.071208499997738,13.458047299995087,[0.3958333333333333],[-0.1975],[1],[0],[0],[1.4082648999901721],['target'],067869,001,2024-10-10_16h13.41.212,visual search,2024.1.5,None,2024-10-10 16h13.49.054253 +0530,
8,0,8,0,13.491950099996757,,13.462400100004743,5,13.491950099996757,13.491950099996757,0.021457099996041507,14.504321500004153,15.488370699997176,[0.1725],[-0.4525],[1],[0],[0],[2.0051415000052657],['target'],067869,001,2024-10-10_16h13.41.212,visual search,2024.1.5,None,2024-10-10 16h13.49.054253 +0530,
9,0,9,0,15.543605899991235,,15.492064699996263,10,15.543605899991235,15.543605899991235,0.03502219999791123,16.56261429999722,17.059897999992245,[0.13666666666666666],[-0.1325],[1],[0],[0],[1.533007699996233],['target'],067869,001,2024-10-10_16h13.41.212,visual search,2024.1.5,None,2024-10-10 16h13.49.054253 +0530,
10,0,10,0,17.09728429999086,,17.066009100002702,5,17.09728429999086,17.09728429999086,0.02090469999529887,18.104005899993354,18.53889569999592,[-0.4816666666666667],[0.36],[1],[0],[0],[1.452643699987675],['target'],067869,001,2024-10-10_16h13.41.212,visual search,2024.1.5,None,2024-10-10 16h13.49.054253 +0530,
11,0,11,0,18.572807100004866,,18.542869099997915,5,18.572807100004866,18.572807100004866,0.020627300007618032,19.57079499999236,20.272775899997214,[-0.4533333333333333],[-0.15166666666666667],[1],[0],[0],[1.7096465000067838],['target'],067869,001,2024-10-10_16h13.41.212,visual search,2024.1.5,None,2024-10-10 16h13.49.054253 +0530,
12,0,12,0,20.306097699998645,,20.276328799998737,5,20.306097699998645,20.306097699998645,0.019925899992813356,21.32128809999267,22.539915499990457,[0.22583333333333333],[-0.4125],[1],[0],[0],[2.2438882000133162],['target'],067869,001,2024-10-10_16h13.41.212,visual search,2024.1.5,None,2024-10-10 16h13.49.054253 +0530,
13,0,13,0,22.599784899997758,,22.543789799994556,10,22.599784899997758,22.599784899997758,0.03580569999758154,23.61093379999511,24.377055000004475,[0.023333333333333334],[-0.165],[1],[0],[0],[1.7977030999900308],[],067869,001,2024-10-10_16h13.41.212,visual search,2024.1.5,None,2024-10-10 16h13.49.054253 +0530,
14,0,14,0,24.40881310000259,,24.380309600004693,5,24.40881310000259,24.40881310000259,0.019425700011197478,25.421862200004398,25.806244699997478,[0.06583333333333333],[0.12583333333333332],[1],[0],[0],[1.4066209999873536],['target'],067869,001,2024-10-10_16h13.41.212,visual search,2024.1.5,None,2024-10-10 16h13.49.054253 +0530,
15,0,15,0,25.866297000000486,,25.810291400004644,10,25.866297000000486,25.866297000000486,0.0359145999973407,26.874274899993907,27.45063730000402,[-0.15916666666666668],[0.43333333333333335],[1],[0],[0],[1.604646200008574],['target'],067869,001,2024-10-10_16h13.41.212,visual search,2024.1.5,None,2024-10-10 16h13.49.054253 +0530,
16,0,16,0,27.51203739999619,,27.453753299996606,10,27.51203739999619,27.51203739999619,0.03571399999782443,28.53722869999183,29.137967399990885,[0.21416666666666667],[0.365],[1],[0],[0],[1.648855299994466],['target'],067869,001,2024-10-10_16h13.41.212,visual search,2024.1.5,None,2024-10-10 16h13.49.054253 +0530,
17,0,17,0,29.17584959999658,,29.14115349999338,5,29.17584959999658,29.17584959999658,0.024762400003965013,30.247407499991823,30.174416800000472,[0.32166666666666666],[0.11666666666666667],[1],[0],[0],[1.008337000006577],['target'],067869,001,2024-10-10_16h13.41.212,visual search,2024.1.5,None,2024-10-10 16h13.49.054253 +0530,
18,0,18,0,30.247407499991823,,30.17863429999852,10,30.247407499991823,30.247407499991823,0.047309899993706495,31.264001100003952,34.60828829999082,[-0.3441666666666667],[-0.016666666666666666],[1],[0],[0],[4.382756799997878],['target'],067869,001,2024-10-10_16h13.41.212,visual search,2024.1.5,None,2024-10-10 16h13.49.054253 +0530,
19,0,19,0,34.66619499999797,,34.611329299994395,10,34.66619499999797,34.66619499999797,0.03269229999568779,35.68032289999246,36.622749399990425,[0.245],[-0.37083333333333335],[1],[0],[0],[1.9778782999928808],['target'],067869,001,2024-10-10_16h13.41.212,visual search,2024.1.5,None,2024-10-10 16h13.49.054253 +0530,
20,0,20,0,36.68892639999103,,36.62625319999643,10,36.68892639999103,36.68892639999103,0.03436379999038763,37.726245700003346,38.45659689999593,[-0.205],[0.4825],[1],[0],[0],[1.7959777000069153],['target'],067869,001,2024-10-10_16h13.41.212,visual search,2024.1.5,None,2024-10-10 16h13.49.054253 +0530,
21,0,21,0,38.49107429999276,,38.459992199990666,5,38.49107429999276,38.49107429999276,0.020235100004356354,39.50463860000309,39.8757992000028,[0.29833333333333334],[0.49],[1],[0],[0],[1.3947305000037886],['target'],067869,001,2024-10-10_16h13.41.212,visual search,2024.1.5,None,2024-10-10 16h13.49.054253 +0530,
22,0,22,0,39.9226212999929,,39.879655900003854,5,39.9226212999929,39.9226212999929,0.02446570000029169,40.9220856000029,41.36264399999345,[-0.009166666666666667],[-0.3258333333333333],[1],[0],[0],[1.4583725999982562],['target'],067869,001,2024-10-10_16h13.41.212,visual search,2024.1.5,None,2024-10-10 16h13.49.054253 +0530,
23,0,23,0,41.4400869999954,,41.36678440000105,10,41.4400869999954,41.4400869999954,0.0472857999993721,42.45965910000086,42.50658089999342,[0.10833333333333334],[-0.3358333333333333],[1],[0],[0],[1.092933499996434],['target'],067869,001,2024-10-10_16h13.41.212,visual search,2024.1.5,None,2024-10-10 16h13.49.054253 +0530,
24,0,24,0,42.58642949999194,,42.50980499999423,10,42.58642949999194,42.58642949999194,0.045107600002666004,43.62763730000006,43.74184269999387,[-0.16583333333333333],[-0.21583333333333332],[1],[0],[0],[1.1870809999963967],['target'],067869,001,2024-10-10_16h13.41.212,visual search,2024.1.5,None,2024-10-10 16h13.49.054253 +0530,
25,0,25,0,43.78856069999165,,43.74676219999674,5,43.78856069999165,43.78856069999165,0.02443249999487307,44.78818469999533,44.95977620000485,[-0.3475],[0.4166666666666667],[1],[0],[0],[1.1885822999902302],['target'],067869,001,2024-10-10_16h13.41.212,visual search,2024.1.5,None,2024-10-10 16h13.49.054253 +0530,
26,0,26,0,45.00711130000127,,44.96387229999527,5,45.00711130000127,45.00711130000127,0.028051499990397133,46.00591870000062,46.259370200001285,[-0.1075],[-0.19],[1],[0],[0],[1.2673550000035902],[],067869,001,2024-10-10_16h13.41.212,visual search,2024.1.5,None,2024-10-10 16h13.49.054253 +0530,
27,0,27,0,46.30861749999167,,46.26523809999344,5,46.30861749999167,46.30861749999167,0.025487400009296834,47.32078559999354,49.573948599994765,[-0.2783333333333333],[0.48833333333333334],[1],[0],[0],[3.2833803000103217],['target'],067869,001,2024-10-10_16h13.41.212,visual search,2024.1.5,None,2024-10-10 16h13.49.054253 +0530,
28,0,28,0,49.64633629999298,,49.579211299991584,10,49.64633629999298,49.64633629999298,0.04208140000991989,50.64801789999183,51.15783699999156,[-0.125],[0.0075],[1],[0],[0],[1.5370220000040717],['target'],067869,001,2024-10-10_16h13.41.212,visual search,2024.1.5,None,2024-10-10 16h13.49.054253 +0530,
29,0,29,0,51.205186099992716,,51.16225599999598,5,51.205186099992716,51.205186099992716,0.026061699987621978,52.20601670000178,52.37688559999515,[-0.2833333333333333],[-0.44166666666666665],[1],[0],[0],[1.1886731999984477],['target'],067869,001,2024-10-10_16h13.41.212,visual search,2024.1.5,None,2024-10-10 16h13.49.054253 +0530,
30,0,30,0,52.451072800002294,,52.382018399992376,10,52.451072800002294,52.451072800002294,0.039685399999143556,53.4583003000007,54.001000299991574,[-0.0275],[0.0575],[1],[0],[0],[1.5795619000127772],['target'],067869,001,2024-10-10_16h13.41.212,visual search,2024.1.5,None,2024-10-10 16h13.49.054253 +0530,
31,0,31,0,54.08641129999887,,54.00441629999841,10,54.08641129999887,54.08641129999887,0.044965999986743554,55.10965349999606,55.51331510000455,[0.030833333333333334],[0.04416666666666667],[1],[0],[0],[1.4638510000077076],['target'],067869,001,2024-10-10_16h13.41.212,visual search,2024.1.5,None,2024-10-10 16h13.49.054253 +0530,
32,0,32,0,55.56014069999219,,55.52264959999593,5,55.56014069999219,55.56014069999219,0.02416339999763295,56.572273300000234,56.709966099995654,[-0.02666666666666667],[-0.22083333333333333],[1],[0],[0],[1.1647303000063403],['target'],067869,001,2024-10-10_16h13.41.212,visual search,2024.1.5,None,2024-10-10 16h13.49.054253 +0530,
33,0,33,0,56.791593300004024,,56.71308770000178,10,56.791593300004024,56.791593300004024,0.044730199995683506,57.81228450000344,58.05085980000149,[0.17],[0.0925],[1],[0],[0],[1.2931504000007408],['target'],067869,001,2024-10-10_16h13.41.212,visual search,2024.1.5,None,2024-10-10 16h13.49.054253 +0530,
34,0,34,0,58.100141999995685,,58.05729739999515,5,58.100141999995685,58.100141999995685,0.02775880000262987,59.105484699990484,59.42374089999066,[0.26916666666666667],[-0.12833333333333333],[1],[0],[0],[1.3392075000010664],['target'],067869,001,2024-10-10_16h13.41.212,visual search,2024.1.5,None,2024-10-10 16h13.49.054253 +0530,
35,0,35,0,59.46668479999062,,59.42820789999678,5,59.46668479999062,59.46668479999062,0.024713799997698516,60.471997000000556,61.392429400002584,[0.16583333333333333],[0.20833333333333334],[1],[0],[0],[1.939852499999688],['target'],067869,001,2024-10-10_16h13.41.212,visual search,2024.1.5,None,2024-10-10 16h13.49.054253 +0530,
36,0,36,0,61.473075899994,,61.398044200002914,10,61.473075899994,61.473075899994,0.04440999998769257,62.47740519999934,62.598352799992426,[0.07],[0.11083333333333334],[1],[0],[0],[1.1561012000020128],['target'],067869,001,2024-10-10_16h13.41.212,visual search,2024.1.5,None,2024-10-10 16h13.49.054253 +0530,
37,0,37,0,62.681595899994136,,62.60536549999961,10,62.681595899994136,62.681595899994136,0.04423250000400003,63.69712119999167,64.20621029999165,[0.43416666666666665],[-0.43416666666666665],[1],[0],[0],[1.5575812999886693],['target'],067869,001,2024-10-10_16h13.41.212,visual search,2024.1.5,None,2024-10-10 16h13.49.054253 +0530,
38,0,38,0,64.29544129999704,,64.21048229999724,10,64.29544129999704,64.29544129999704,0.04494840001279954,65.32333119999385,65.35232520000136,[0.23916666666666667],[0.22583333333333333],[1],[0],[0],[1.0969760000007227],['target'],067869,001,2024-10-10_16h13.41.212,visual search,2024.1.5,None,2024-10-10 16h13.49.054253 +0530,
39,0,39,0,65.3892482999945,,65.35570949999965,5,65.3892482999945,65.3892482999945,0.018670699995709583,66.38851669999713,66.60897699999623,[0.44416666666666665],[-0.06],[1],[0],[0],[1.2341672999900766],['target'],067869,001,2024-10-10_16h13.41.212,visual search,2024.1.5,None,2024-10-10 16h13.49.054253 +0530,
40,0,40,0,66.67575899999065,,66.61401299999852,10,66.67575899999065,66.67575899999065,0.037719399988418445,,67.6178504999989,[0.43583333333333335],[-0.07666666666666666],[1],[0],[0],[0.9668610999942757],['target'],067869,001,2024-10-10_16h13.41.212,visual search,2024.1.5,None,2024-10-10 16h13.49.054253 +0530,
41,0,41,0,67.65778280000086,,67.62252599999192,5,67.65778280000086,67.65778280000086,0.020765799999935552,68.67253959999653,68.97602129999723,[0.42583333333333334],[-0.26916666666666667],[1],[0],[0],[1.3336434999946505],[],067869,001,2024-10-10_16h13.41.212,visual search,2024.1.5,None,2024-10-10 16h13.49.054253 +0530,
42,0,42,0,69.03453019999142,,68.97980679999455,10,69.03453019999142,69.03453019999142,0.03839200000220444,70.04531689999567,70.88217969999823,[-0.4025],[0.07083333333333333],[1],[0],[0],[1.8631754000089131],['target'],067869,001,2024-10-10_16h13.41.212,visual search,2024.1.5,None,2024-10-10 16h13.49.054253 +0530,
43,0,43,0,70.96660279999196,,70.88928319999832,10,70.96660279999196,70.96660279999196,0.04442120000021532,72.01028590000351,72.4123985000042,[-0.49666666666666665],[-0.2525],[1],[0],[0],[1.4801884000044083],['target'],067869,001,2024-10-10_16h13.41.212,visual search,2024.1.5,None,2024-10-10 16h13.49.054253 +0530,
44,0,44,0,72.46065429999726,,72.41600250000192,5,72.46065429999726,72.46065429999726,0.028092299995478243,73.47187409999606,73.576550400001,[-0.195],[-0.30416666666666664],[1],[0],[0],[1.1327179000072647],['target'],067869,001,2024-10-10_16h13.41.212,visual search,2024.1.5,None,2024-10-10 16h13.49.054253 +0530,
45,0,45,0,73.643931899991,,73.58180040000298,10,73.643931899991,73.643931899991,0.04350729999714531,74.65750279999338,74.85804890000145,[-0.30833333333333335],[-0.21916666666666668],[1],[0],[0],[1.2343498999980511],['target'],067869,001,2024-10-10_16h13.41.212,visual search,2024.1.5,None,2024-10-10 16h13.49.054253 +0530,
46,0,46,0,74.94393719999061,,74.86128199999803,10,74.94393719999061,74.94393719999061,0.05044140000245534,75.97620150000148,76.47263229999226,[0.2475],[0.2425],[1],[0],[0],[1.5609323999960907],['target'],067869,001,2024-10-10_16h13.41.212,visual search,2024.1.5,None,2024-10-10 16h13.49.054253 +0530,
47,0,47,0,76.50932879999164,,76.47780500000226,5,76.50932879999164,76.50932879999164,0.021572600002400577,77.52306829999725,77.84060119999049,[0.10916666666666666],[-0.0825],[1],[0],[0],[1.3412859000090975],['target'],067869,001,2024-10-10_16h13.41.212,visual search,2024.1.5,None,2024-10-10 16h13.49.054253 +0530,
48,0,48,0,77.87433459999738,,77.8447576000035,5,77.87433459999738,77.87433459999738,0.020324400000390597,78.88877920000232,79.35829979999107,[-0.15416666666666667],[-0.37333333333333335],[1],[0],[0],[1.493113100004848],['target'],067869,001,2024-10-10_16h13.41.212,visual search,2024.1.5,None,2024-10-10 16h13.49.054253 +0530,
49,0,49,0,79.3962293999939,,79.36210969999956,5,79.3962293999939,79.3962293999939,0.023866200004704297,80.40583570000308,80.657999499992,[-0.011666666666666667],[0.3433333333333333],[1],[0],[0],[1.2721036999864737],[],067869,001,2024-10-10_16h13.41.212,visual search,2024.1.5,None,2024-10-10 16h13.49.054253 +0530,
50,0,50,0,80.69632289999572,,80.662805999993,5,80.69632289999572,80.69632289999572,0.020634300002711825,81.70611949999875,81.80838829999266,[-0.505],[-0.13833333333333334],[1],[0],[0],[1.1251296999980696],['target'],067869,001,2024-10-10_16h13.41.212,visual search,2024.1.5,None,2024-10-10 16h13.49.054253 +0530,
51,0,51,0,81.84740420000162,,81.81309260000126,5,81.84740420000162,81.84740420000162,0.022410999998101033,82.85599270000239,82.90850229999342,[0.02666666666666667],[0.18833333333333332],[1],[0],[0],[1.0731378000054974],['target'],067869,001,2024-10-10_16h13.41.212,visual search,2024.1.5,None,2024-10-10 16h13.49.054253 +0530,
52,0,52,0,82.95393889999832,,82.91366370000469,5,82.95393889999832,82.95393889999832,0.02255939999304246,83.95611349999672,84.10846329999913,[0.09166666666666666],[0.3875],[1],[0],[0],[1.1723078999930294],['target'],067869,001,2024-10-10_16h13.41.212,visual search,2024.1.5,None,2024-10-10 16h13.49.054253 +0530,
53,0,53,0,84.15134630000102,,84.1135837000038,5,84.15134630000102,84.15134630000102,0.022550399997271597,85.15601459999743,85.3432366999914,[0.08166666666666667],[0.06166666666666667],[1],[0],[0],[1.2069799000018975],['target'],067869,001,2024-10-10_16h13.41.212,visual search,2024.1.5,None,2024-10-10 16h13.49.054253 +0530,
54,0,54,0,85.40780479999376,,85.34774250000191,10,85.40780479999376,85.40780479999376,0.03902179999568034,86.41273300000466,86.59609930000443,[-0.27666666666666667],[-0.06333333333333334],[1],[0],[0],[1.2093830999947386],['target'],067869,001,2024-10-10_16h13.41.212,visual search,2024.1.5,None,2024-10-10 16h13.49.054253 +0530,
55,0,55,0,86.65585389999615,,86.59918509999989,10,86.65585389999615,86.65585389999615,0.03288299999258015,87.68218839999463,87.74339940000209,[-0.115],[0.07333333333333333],[1],[0],[0],[1.1113713999948232],['target'],067869,001,2024-10-10_16h13.41.212,visual search,2024.1.5,None,2024-10-10 16h13.49.054253 +0530,
56,0,56,0,87.82616209999833,,87.74854709999636,10,87.82616209999833,87.82616209999833,0.04585310000402387,88.93752310000127,88.84013179999602,[-0.25916666666666666],[0.07],[1],[0],[0],[1.046717000004719],['target'],067869,001,2024-10-10_16h13.41.212,visual search,2024.1.5,None,2024-10-10 16h13.49.054253 +0530,
57,0,57,0,88.93752310000127,,88.84533589999774,10,88.93752310000127,88.93752310000127,0.05011350000859238,89.959168699992,91.05835939999088,[0.21583333333333332],[0.34],[1],[0],[0],[2.1630650000006426],['target'],067869,001,2024-10-10_16h13.41.212,visual search,2024.1.5,None,2024-10-10 16h13.49.054253 +0530,
58,0,58,0,91.09877650000271,,91.06246159999864,5,91.09877650000271,91.09877650000271,0.023896300001069903,92.10643909999635,92.17771499999799,[-0.0025],[0.21],[1],[0],[0],[1.0911074000032386],['target'],067869,001,2024-10-10_16h13.41.212,visual search,2024.1.5,None,2024-10-10 16h13.49.054253 +0530,
59,0,59,0,92.21975899999961,,92.18189569999231,5,92.21975899999961,92.21975899999961,0.02581199999258388,93.22305810000398,93.57446459999483,[-0.09916666666666667],[0.18416666666666667],[1],[0],[0],[1.3669091999909142],['target'],067869,001,2024-10-10_16h13.41.212,visual search,2024.1.5,None,2024-10-10 16h13.49.054253 +0530,
60,0,60,0,93.61321989999851,,93.57846489999793,5,93.61321989999851,93.61321989999851,0.02351890000863932,94.62288379999518,94.97580169999856,[-0.32666666666666666],[-0.22833333333333333],[1],[0],[0],[1.3737075999961235],['target'],067869,001,2024-10-10_16h13.41.212,visual search,2024.1.5,None,2024-10-10 16h13.49.054253 +0530,
61,0,61,0,95.01517109999259,,94.98042920000444,5,95.01517109999259,95.01517109999259,0.021848799995495938,96.02330790000269,96.29179760000261,[0.3541666666666667],[0.1475],[1],[0],[0],[1.2895334000058938],['target'],067869,001,2024-10-10_16h13.41.212,visual search,2024.1.5,None,2024-10-10 16h13.49.054253 +0530,
62,0,62,0,96.3309248000005,,96.29698719999578,5,96.3309248000005,96.3309248000005,0.022866799990879372,97.33881400000246,97.95777890000318,[-0.49833333333333335],[0.11166666666666666],[1],[0],[0],[1.6384208999952534],['target'],067869,001,2024-10-10_16h13.41.212,visual search,2024.1.5,None,2024-10-10 16h13.49.054253 +0530,
63,0,63,0,98.0313857000001,,97.96266049999394,10,98.0313857000001,98.0313857000001,0.045429699996020645,99.05269719999342,99.99265829999058,[0.1175],[-0.17333333333333334],[1],[0],[0],[1.9850085000070976],['target'],067869,001,2024-10-10_16h13.41.212,visual search,2024.1.5,None,2024-10-10 16h13.49.054253 +0530,
64,0,64,0,100.05140299999039,,99.99613519999548,10,100.05140299999039,100.05140299999039,0.03198899999551941,101.0632595999923,102.09864539999398,[0.23166666666666666],[0.0775],[1],[0],[0],[2.070836800005054],['target'],067869,001,2024-10-10_16h13.41.212,visual search,2024.1.5,None,2024-10-10 16h13.49.054253 +0530,
65,0,65,0,102.17675939999754,,102.10322819999419,10,102.17675939999754,102.17675939999754,0.033450699993409216,103.2264828000043,104.18375260000175,[-0.5],[-0.2841666666666667],[1],[0],[0],[2.0472653999895556],['target'],067869,001,2024-10-10_16h13.41.212,visual search,2024.1.5,None,2024-10-10 16h13.49.054253 +0530,
66,0,66,0,104.27719169999182,,104.18995060000452,10,104.27719169999182,104.27719169999182,0.04401730000972748,105.32332860000315,105.74693529999058,[0.0375],[-0.049166666666666664],[1],[0],[0],[1.5134410000027856],['target'],067869,001,2024-10-10_16h13.41.212,visual search,2024.1.5,None,2024-10-10 16h13.49.054253 +0530,
67,0,67,0,105.78461889999744,,105.75344990000303,5,105.78461889999744,105.78461889999744,0.020920099996146746,106.7907367000007,107.19488039999851,[0.10666666666666667],[0.43666666666666665],[1],[0],[0],[1.4207001000031596],['target'],067869,001,2024-10-10_16h13.41.212,visual search,2024.1.5,None,2024-10-10 16h13.49.054253 +0530,
68,0,68,0,107.23669859999791,,107.19865629999549,5,107.23669859999791,107.23669859999791,0.026030399996670894,,108.10720549999678,[-0.4125],[0.06916666666666667],[1],[0],[0],[0.8828814000007696],['target'],067869,001,2024-10-10_16h13.41.212,visual search,2024.1.5,None,2024-10-10 16h13.49.054253 +0530,
69,0,69,0,108.14718519999587,,108.11048750000191,5,108.14718519999587,108.14718519999587,0.02532719999726396,109.15633669999079,109.20738419999543,[-0.3566666666666667],[0.43916666666666665],[1],[0],[0],[1.0717189999995753],['target'],067869,001,2024-10-10_16h13.41.212,visual search,2024.1.5,None,2024-10-10 16h13.49.054253 +0530,
70,0,70,0,109.248728999999,,109.21099269999831,5,109.248728999999,109.248728999999,0.025473500005318783,110.25703919999069,110.80854919999547,[0.4025],[0.265],[1],[0],[0],[1.5719711999990977],['target'],067869,001,2024-10-10_16h13.41.212,visual search,2024.1.5,None,2024-10-10 16h13.49.054253 +0530,
71,0,71,0,110.84437099999923,,110.81392719999712,5,110.84437099999923,110.84437099999923,0.019777599998633377,111.85587299999315,112.093924899993,[-0.3858333333333333],[-0.275],[1],[0],[0],[1.260309999997844],['target'],067869,001,2024-10-10_16h13.41.212,visual search,2024.1.5,None,2024-10-10 16h13.49.054253 +0530,
72,0,72,0,112.1338451999909,,112.10023490000458,5,112.1338451999909,112.1338451999909,0.025192300003254786,113.14046129999042,113.44321630000195,[0.0008333333333333334],[0.3925],[1],[0],[0],[1.3192100000014761],['target'],067869,001,2024-10-10_16h13.41.212,visual search,2024.1.5,None,2024-10-10 16h13.49.054253 +0530,
73,0,73,0,113.48533820000011,,113.44743359999848,5,113.48533820000011,113.48533820000011,0.02643930001067929,114.4905512999976,115.37894070000038,[0.4725],[0.2758333333333333],[1],[0],[0],[1.9048161999962758],['target'],067869,001,2024-10-10_16h13.41.212,visual search,2024.1.5,None,2024-10-10 16h13.49.054253 +0530,
74,0,74,0,115.44051020000188,,115.38476210000226,10,115.44051020000188,115.44051020000188,0.036907700006850064,116.45732169999974,116.71608739999647,[0.05583333333333333],[-0.3283333333333333],[1],[0],[0],[1.2945628000015859],['target'],067869,001,2024-10-10_16h13.41.212,visual search,2024.1.5,None,2024-10-10 16h13.49.054253 +0530,
75,0,75,0,116.79001969999808,,116.72188430000097,10,116.79001969999808,116.79001969999808,0.04375640000216663,117.804361100003,118.15949049999472,[0.06333333333333334],[0.31833333333333336],[1],[0],[0],[1.394872699995176],['target'],067869,001,2024-10-10_16h13.41.212,visual search,2024.1.5,None,2024-10-10 16h13.49.054253 +0530,
76,0,76,0,118.24286149999534,,118.16405669999949,10,118.24286149999534,118.24286149999534,0.042697700002463534,119.27178249999997,119.49698229999922,[-0.2866666666666667],[0.24583333333333332],[1],[0],[0],[1.2905213000049116],['target'],067869,001,2024-10-10_16h13.41.212,visual search,2024.1.5,None,2024-10-10 16h13.49.054253 +0530,
77,0,77,0,119.58019069999864,,119.50018970000383,10,119.58019069999864,119.58019069999864,0.04008669999893755,120.63107649999438,120.93699129999732,[-0.45166666666666666],[-0.1],[1],[0],[0],[1.3967279999924358],['target'],067869,001,2024-10-10_16h13.41.212,visual search,2024.1.5,None,2024-10-10 16h13.49.054253 +0530,
78,0,78,0,121.02511039999081,,120.94168609999178,10,121.02511039999081,121.02511039999081,0.03318980000040028,122.07497469999362,123.13503279999713,[-0.3275],[-0.14166666666666666],[1],[0],[0],[2.1600814999983413],['target'],067869,001,2024-10-10_16h13.41.212,visual search,2024.1.5,None,2024-10-10 16h13.49.054253 +0530,
79,0,79,0,123.16886419999355,,123.13856949999172,5,123.16886419999355,123.16886419999355,0.018946299998788163,124.17396089999238,125.24637229999644,[0.4175],[0.07333333333333333],[1],[0],[0],[2.089075399999274],['target'],067869,001,2024-10-10_16h13.41.212,visual search,2024.1.5,None,2024-10-10 16h13.49.054253 +0530,
80,0,80,0,125.32457630000135,,125.25027170000249,10,125.32457630000135,125.32457630000135,0.04769300000043586,126.34253339999123,127.53649450000376,[-0.4008333333333333],[-0.2625],[1],[0],[0],[2.238622300006682],['target'],067869,001,2024-10-10_16h13.41.212,visual search,2024.1.5,None,2024-10-10 16h13.49.054253 +0530,
81,0,81,0,127.61962280000444,,127.54074729999411,10,127.61962280000444,127.61962280000444,0.04847419999714475,128.64846640000178,130.04352779999317,[-0.43166666666666664],[0.49916666666666665],[1],[0],[0],[2.4546607000083895],['target'],067869,001,2024-10-10_16h13.41.212,visual search,2024.1.5,None,2024-10-10 16h13.49.054253 +0530,
82,0,82,0,130.0765379999939,,130.0467701000016,5,130.0765379999939,130.0765379999939,0.01680379999743309,131.09015139999974,131.2951802000025,[-0.10416666666666667],[-0.07083333333333333],[1],[0],[0],[1.2312802000087686],['target'],067869,001,2024-10-10_16h13.41.212,visual search,2024.1.5,None,2024-10-10 16h13.49.054253 +0530,
83,0,83,0,131.33955829999468,,131.29921280000417,5,131.33955829999468,131.33955829999468,0.021878100000321865,132.34060939999472,132.49477959999058,[-0.355],[-0.37166666666666665],[1],[0],[0],[1.1737625999958254],['target'],067869,001,2024-10-10_16h13.41.212,visual search,2024.1.5,None,2024-10-10 16h13.49.054253 +0530,
84,0,84,0,132.57238109999162,,132.49895120000292,10,132.57238109999162,132.57238109999162,0.04380939999828115,133.58278409999912,133.76731310000469,[-0.42583333333333334],[-0.25916666666666666],[1],[0],[0],[1.2245791000023019],['target'],067869,001,2024-10-10_16h13.41.212,visual search,2024.1.5,None,2024-10-10 16h13.49.054253 +0530,
85,0,85,0,133.8398443999904,,133.77389860000403,10,133.8398443999904,133.8398443999904,0.03575740000815131,134.857293699999,135.37504339999577,[0.30583333333333335],[-0.045],[1],[0],[0],[1.565787100000307],['target'],067869,001,2024-10-10_16h13.41.212,visual search,2024.1.5,None,2024-10-10 16h13.49.054253 +0530,
86,0,86,0,135.41663659999904,,135.37844679999398,5,135.41663659999904,135.41663659999904,0.021233899999060668,136.42367449999438,137.02770730000339,[0.43083333333333335],[0.305],[1],[0],[0],[1.6277793000044767],['target'],067869,001,2024-10-10_16h13.41.212,visual search,2024.1.5,None,2024-10-10 16h13.49.054253 +0530,
87,0,87,0,137.0963494000025,,137.0330435999931,10,137.0963494000025,137.0963494000025,0.03838969999924302,138.10049319999234,138.13527450000402,[-0.045],[-0.06],[1],[0],[0],[1.0631570000114152],[],067869,001,2024-10-10_16h13.41.212,visual search,2024.1.5,None,2024-10-10 16h13.49.054253 +0530,
88,0,88,0,138.1663969999936,,138.13979929999914,5,138.1663969999936,138.1663969999936,0.017250000004423782,139.17279149999376,139.28100609999092,[-0.21166666666666667],[0.20666666666666667],[1],[0],[0],[1.1241376999969361],['target'],067869,001,2024-10-10_16h13.41.212,visual search,2024.1.5,None,2024-10-10 16h13.49.054253 +0530,
89,0,89,0,139.32324280000466,,139.28672180000285,5,139.32324280000466,139.32324280000466,0.023682500002905726,140.32456860000093,140.54265649999434,[-0.21416666666666667],[-0.255],[1],[0],[0],[1.2333745999931125],['target'],067869,001,2024-10-10_16h13.41.212,visual search,2024.1.5,None,2024-10-10 16h13.49.054253 +0530,
90,0,90,0,140.58278319999226,,140.5475354999944,5,140.58278319999226,140.58278319999226,0.02446790000249166,141.5906274000008,145.67740919999778,[-0.3125],[-0.2175],[1],[0],[0],[5.105886300007114],['target'],067869,001,2024-10-10_16h13.41.212,visual search,2024.1.5,None,2024-10-10 16h13.49.054253 +0530,
91,0,91,0,145.75847259999136,,145.6820238999935,10,145.75847259999136,145.75847259999136,0.047374999994644895,146.77203769999323,147.4689279000013,[0.2758333333333333],[-0.29333333333333333],[1],[0],[0],[1.739836299995659],['target'],067869,001,2024-10-10_16h13.41.212,visual search,2024.1.5,None,2024-10-10 16h13.49.054253 +0530,
92,0,92,0,147.55185340000025,,147.47495970000455,10,147.55185340000025,147.55185340000025,0.04200950000085868,148.5849378999992,149.2670066999999,[0.42],[-0.08583333333333333],[1],[0],[0],[1.7499958999978844],['target'],067869,001,2024-10-10_16h13.41.212,visual search,2024.1.5,None,2024-10-10 16h13.49.054253 +0530,
93,0,93,0,149.30784769999445,,149.2723904000013,5,149.30784769999445,149.30784769999445,0.02345890000287909,150.30815090000397,150.32823749999807,[0.3491666666666667],[-0.015],[1],[0],[0],[1.0333947999897646],['target'],067869,001,2024-10-10_16h13.41.212,visual search,2024.1.5,None,2024-10-10 16h13.49.054253 +0530,
94,0,94,0,150.39847349999764,,150.33241299999645,10,150.39847349999764,150.39847349999764,0.04652259999420494,151.40727939999488,151.5949374000047,[-0.105],[0.06583333333333333],[1],[0],[0],[1.2164001000055578],['target'],067869,001,2024-10-10_16h13.41.212,visual search,2024.1.5,None,2024-10-10 16h13.49.054253 +0530,
95,0,95,0,151.66125639999518,,151.5977581999905,10,151.66125639999518,151.66125639999518,0.03560240000660997,152.69574969999667,153.20896580000408,[0.38916666666666666],[-0.4008333333333333],[1],[0],[0],[1.5753885000012815],['target'],067869,001,2024-10-10_16h13.41.212,visual search,2024.1.5,None,2024-10-10 16h13.49.054253 +0530,
96,0,96,0,153.24666740000248,,153.21367899999314,5,153.24666740000248,153.24666740000248,0.022647000005235896,154.25720150000416,154.84382819999882,[-0.19833333333333333],[0.21666666666666667],[1],[0],[0],[1.607925799995428],['target'],067869,001,2024-10-10_16h13.41.212,visual search,2024.1.5,None,2024-10-10 16h13.49.054253 +0530,
97,0,97,0,154.91868999999133,,154.84855100000277,10,154.91868999999133,154.91868999999133,0.04391739999118727,155.9333353999973,156.3678792999999,[-0.1725],[0.2525],[1],[0],[0],[1.475572600000305],['target'],067869,001,2024-10-10_16h13.41.212,visual search,2024.1.5,None,2024-10-10 16h13.49.054253 +0530,
98,0,98,0,156.40878139999404,,156.3746012999909,5,156.40878139999404,156.40878139999404,0.022625300000072457,157.42458079999778,157.6473374999914,[-0.27416666666666667],[0.2375],[1],[0],[0],[1.2511449000012362],['target'],067869,001,2024-10-10_16h13.41.212,visual search,2024.1.5,None,2024-10-10 16h13.49.054253 +0530,
99,0,99,0,157.72788530000253,,157.65318470000057,10,157.72788530000253,157.72788530000253,0.05433379999885801,158.74805349999224,159.3273754999973,[0.26],[-0.4266666666666667],[1],[0],[0],[1.6205345000053057],['target'],067869,001,2024-10-10_16h13.41.212,visual search,2024.1.5,None,2024-10-10 16h13.49.054253 +0530,
100,0,100,0,159.3943919000012,,159.3312966999947,10,159.3943919000012,159.3943919000012,0.03691760000947397,160.4097172000038,162.46442010000465,[-0.16333333333333333],[0.0725],[1],[0],[0],[3.0972468000109075],['target'],067869,001,2024-10-10_16h13.41.212,visual search,2024.1.5,None,2024-10-10 16h13.49.054253 +0530,
101,0,101,0,162.49929039999552,,162.46791930000472,5,162.49929039999552,162.49929039999552,0.019307900001876988,163.50845939999272,163.67718139999488,[-0.0125],[0.4425],[1],[0],[0],[1.1903093000000808],['target'],067869,001,2024-10-10_16h13.41.212,visual search,2024.1.5,None,2024-10-10 16h13.49.054253 +0530,
102,0,102,0,163.7167124999978,,163.68178479999187,5,163.7167124999978,163.7167124999978,0.021438299998408183,164.72411999999895,165.34316249999392,[0.3175],[0.49666666666666665],[1],[0],[0],[1.6400605000089854],['target'],067869,001,2024-10-10_16h13.41.212,visual search,2024.1.5,None,2024-10-10 16h13.49.054253 +0530,
103,0,103,0,165.40676699999312,,165.34785360000387,10,165.40676699999312,165.40676699999312,0.03622490000270773,166.4277071999968,169.2339956999931,[0.12833333333333333],[-0.36],[1],[0],[0],[3.850457300010021],['target'],067869,001,2024-10-10_16h13.41.212,visual search,2024.1.5,None,2024-10-10 16h13.49.054253 +0530,
104,0,104,0,169.27105939999456,,169.23959009999817,5,169.27105939999456,169.27105939999456,0.01869559999613557,170.2746247000032,174.4779647999967,[0.295],[-0.31166666666666665],[1],[0],[0],[5.22033399999782],['target'],067869,001,2024-10-10_16h13.41.212,visual search,2024.1.5,None,2024-10-10 16h13.49.054253 +0530,
105,0,105,0,174.5108312999946,,174.48178109999571,5,174.5108312999946,174.5108312999946,0.019363900006283075,175.52479799999855,175.6919207000028,[-0.17166666666666666],[-0.33916666666666667],[1],[0],[0],[1.1909797999978764],['target'],067869,001,2024-10-10_16h13.41.212,visual search,2024.1.5,None,2024-10-10 16h13.49.054253 +0530,
106,0,106,0,175.75463719999243,,175.69576859999506,10,175.75463719999243,175.75463719999243,0.034354600007645786,176.76180819999718,176.96994870000344,[0.145],[0.03166666666666667],[1],[0],[0],[1.2399567999964347],['target'],067869,001,2024-10-10_16h13.41.212,visual search,2024.1.5,None,2024-10-10 16h13.49.054253 +0530,
107,0,107,0,177.0068212000042,,176.9755223999964,5,177.0068212000042,177.0068212000042,0.017072300004656427,178.00836290000007,178.26056049999897,[-0.17416666666666666],[-0.36083333333333334],[1],[0],[0],[1.267971299996134],['target'],067869,001,2024-10-10_16h13.41.212,visual search,2024.1.5,None,2024-10-10 16h13.49.054253 +0530,
108,0,108,0,178.29601049999474,,178.26592459999665,5,178.29601049999474,178.29601049999474,0.0196462000021711,179.31391719999374,179.62611019999895,[0.1425],[0.034166666666666665],[1],[0],[0],[1.3412028000020655],['target'],067869,001,2024-10-10_16h13.41.212,visual search,2024.1.5,None,2024-10-10 16h13.49.054253 +0530,
109,0,109,0,179.69116669999494,,179.62994929999695,10,179.69116669999494,179.69116669999494,0.035640799993416294,180.69293419999303,180.8328080999927,[-0.1725],[-0.025],[1],[0],[0],[1.167266300006304],[],067869,001,2024-10-10_16h13.41.212,visual search,2024.1.5,None,2024-10-10 16h13.49.054253 +0530,
110,0,110,0,180.89711599999282,,180.83606699999655,10,180.89711599999282,180.89711599999282,0.03260700000100769,181.9248474999913,182.2279819999967,[0.20666666666666667],[-0.025],[1],[0],[0],[1.3595435000024736],['target'],067869,001,2024-10-10_16h13.41.212,visual search,2024.1.5,None,2024-10-10 16h13.49.054253 +0530,
111,0,111,0,182.25985129999754,,182.2309796000045,5,182.25985129999754,182.25985129999754,0.01790140000230167,183.27381450000394,183.54273909999756,[-0.05583333333333333],[-0.0375],[1],[0],[0],[1.2939348000072641],['target'],067869,001,2024-10-10_16h13.41.212,visual search,2024.1.5,None,2024-10-10 16h13.49.054253 +0530,
112,0,112,0,183.60247149999486,,183.54755370000203,10,183.60247149999486,183.60247149999486,0.03446149999217596,184.63201580000168,185.14284549999866,[-0.175],[0.44333333333333336],[1],[0],[0],[1.5611015999893425],['target'],067869,001,2024-10-10_16h13.41.212,visual search,2024.1.5,None,2024-10-10 16h13.49.054253 +0530,
113,0,113,0,185.21953699999722,,185.14617920000455,10,185.21953699999722,185.21953699999722,0.03449959999124985,186.2504304000031,186.8210476999957,[-0.04083333333333333],[0.30083333333333334],[1],[0],[0],[1.640621900005499],['target'],067869,001,2024-10-10_16h13.41.212,visual search,2024.1.5,None,2024-10-10 16h13.49.054253 +0530,
114,0,114,0,186.8922087999963,,186.8245978999912,10,186.8922087999963,186.8922087999963,0.03428999999596272,187.93432790000224,188.1307753000001,[0.12916666666666668],[-0.18333333333333332],[1],[0],[0],[1.272254099996644],['target'],067869,001,2024-10-10_16h13.41.212,visual search,2024.1.5,None,2024-10-10 16h13.49.054253 +0530,
115,0,115,0,188.21050889999606,,188.134152300001,10,188.21050889999606,188.21050889999606,0.03479989999323152,189.25439679999545,190.5642477999936,[0.28],[-0.17666666666666667],[1],[0],[0],[2.3955023999878904],['target'],067869,001,2024-10-10_16h13.41.212,visual search,2024.1.5,None,2024-10-10 16h13.49.054253 +0530,
116,0,116,0,190.60296019999078,,190.56754979999096,5,190.60296019999078,190.60296019999078,0.024017100004130043,191.60902639999404,192.04392789999838,[-0.03916666666666667],[0.43166666666666664],[1],[0],[0],[1.4523210000043036],['target'],067869,001,2024-10-10_16h13.41.212,visual search,2024.1.5,None,2024-10-10 16h13.49.054253 +0530,
117,0,117,0,192.10061850000056,,192.04809739999473,10,192.10061850000056,192.10061850000056,0.03450130000419449,193.10974919999717,195.1012125999987,[0.25833333333333336],[-0.03166666666666667],[1],[0],[0],[3.018588799997815],['target'],067869,001,2024-10-10_16h13.41.212,visual search,2024.1.5,None,2024-10-10 16h13.49.054253 +0530,
118,0,118,0,195.1310433000035,,195.10439779999433,5,195.1310433000035,195.1310433000035,0.015686600003391504,196.1431542999926,196.8105058999936,[0.4241666666666667],[0.3],[1],[0],[0],[1.6904934000049252],['target'],067869,001,2024-10-10_16h13.41.212,visual search,2024.1.5,None,2024-10-10 16h13.49.054253 +0530,
119,0,119,0,196.8687751999969,,196.81484649999766,10,196.8687751999969,196.8687751999969,0.03563509999366943,197.877507600002,198.3406299999915,[-0.010833333333333334],[0.26666666666666666],[1],[0],[0],[1.4901688000099966],['target'],067869,001,2024-10-10_16h13.41.212,visual search,2024.1.5,None,2024-10-10 16h13.49.054253 +0530,
120,0,120,0,198.37984249999863,,198.34493209999346,5,198.37984249999863,198.37984249999863,0.023105900007067248,199.39185780000116,199.74314890000096,[0.10666666666666667],[-0.12],[1],[0],[0],[1.3754084999964107],['target'],067869,001,2024-10-10_16h13.41.212,visual search,2024.1.5,None,2024-10-10 16h13.49.054253 +0530,
121,0,121,0,199.77730679999513,,199.74689589999616,5,199.77730679999513,199.77730679999513,0.01984259999881033,200.79066679999232,201.3593136999989,[-0.24166666666666667],[0.18333333333333332],[1],[0],[0],[1.5928534000122454],['target'],067869,001,2024-10-10_16h13.41.212,visual search,2024.1.5,None,2024-10-10 16h13.49.054253 +0530,
122,0,122,0,201.39643749999232,,201.36381779999647,5,201.39643749999232,201.39643749999232,0.02036470000166446,202.4082911000005,202.54780610000307,[-0.12666666666666668],[-0.03916666666666667],[1],[0],[0],[1.1639009000064107],['target'],067869,001,2024-10-10_16h13.41.212,visual search,2024.1.5,None,2024-10-10 16h13.49.054253 +0530,
123,0,123,0,202.6012061999936,,202.55103809999127,10,202.6012061999936,202.6012061999936,0.03386759999557398,203.62854479999805,204.09939750000194,[0.16833333333333333],[-0.11],[1],[0],[0],[1.5146750999992946],['target'],067869,001,2024-10-10_16h13.41.212,visual search,2024.1.5,None,2024-10-10 16h13.49.054253 +0530,
124,0,124,0,204.1627201999945,,204.10361259999627,10,204.1627201999945,204.1627201999945,0.034987499995622784,205.19839389999106,205.4026351999928,[0.009166666666666667],[0.24833333333333332],[1],[0],[0],[1.2646893999917665],['target'],067869,001,2024-10-10_16h13.41.212,visual search,2024.1.5,None,2024-10-10 16h13.49.054253 +0530,
125,0,125,0,205.47589790000347,,205.40782880000188,10,205.47589790000347,205.47589790000347,0.03346180000517052,206.5112597999978,207.06241959999898,[-0.25666666666666665],[-0.42916666666666664],[1],[0],[0],[1.6212282000051346],['target'],067869,001,2024-10-10_16h13.41.212,visual search,2024.1.5,None,2024-10-10 16h13.49.054253 +0530,
126,0,126,0,207.14301210000122,,207.0663160999975,10,207.14301210000122,207.14301210000122,0.0352225999959046,208.1806740000029,208.86081719999493,[0.33916666666666667],[-0.32916666666666666],[1],[0],[0],[1.7592557000025408],['target'],067869,001,2024-10-10_16h13.41.212,visual search,2024.1.5,None,2024-10-10 16h13.49.054253 +0530,
127,0,127,0,208.9360994000017,,208.86392279999563,10,208.9360994000017,208.9360994000017,0.03216640000755433,209.96934480000346,210.15636829999858,[-0.095],[0.43583333333333335],[1],[0],[0],[1.2604463000025135],['target'],067869,001,2024-10-10_16h13.41.212,visual search,2024.1.5,None,2024-10-10 16h13.49.054253 +0530,
128,0,128,0,210.2502158999996,,210.15987570000289,10,210.2502158999996,210.2502158999996,0.03503369999816641,211.2994730999926,214.02784280000196,[-0.48083333333333333],[-0.06583333333333333],[1],[0],[0],[3.833175499996287],['target'],067869,001,2024-10-10_16h13.41.212,visual search,2024.1.5,None,2024-10-10 16h13.49.054253 +0530,
129,0,129,0,214.06322060000093,,214.0316290000046,5,214.06322060000093,214.06322060000093,0.019652999995741993,215.07533199999307,215.51219789999595,[0.125],[-0.405],[1],[0],[0],[1.4611258000077214],['target'],067869,001,2024-10-10_16h13.41.212,visual search,2024.1.5,None,2024-10-10 16h13.49.054253 +0530,
130,0,130,0,215.56892499999958,,215.5161553999933,10,215.56892499999958,215.56892499999958,0.03462950000539422,216.58578419999685,216.86665019999782,[0.056666666666666664],[0.4741666666666667],[1],[0],[0],[1.31641959999979],['target'],067869,001,2024-10-10_16h13.41.212,visual search,2024.1.5,None,2024-10-10 16h13.49.054253 +0530,
131,0,131,0,216.90059039999323,,216.87082050000026,5,216.90059039999323,216.90059039999323,0.019093700000667013,217.90905380000186,217.97713709999516,[-0.16083333333333333],[0.31666666666666665],[1],[0],[0],[1.0879037999984575],['target'],067869,001,2024-10-10_16h13.41.212,visual search,2024.1.5,None,2024-10-10 16h13.49.054253 +0530,
132,0,132,0,218.00991259999864,,217.98032459999376,5,218.00991259999864,218.00991259999864,0.019240100009483285,219.00790539999434,219.30958109999483,[-0.3283333333333333],[0.28833333333333333],[1],[0],[0],[1.3101666000002297],['target'],067869,001,2024-10-10_16h13.41.212,visual search,2024.1.5,None,2024-10-10 16h13.49.054253 +0530,
133,0,133,0,219.36980519999634,,219.31352549999428,10,219.36980519999634,219.36980519999634,0.039100399997550994,220.39539530000184,221.07973270000366,[0.3883333333333333],[-0.4775],[1],[0],[0],[1.7271825000061654],['target'],067869,001,2024-10-10_16h13.41.212,visual search,2024.1.5,None,2024-10-10 16h13.49.054253 +0530,
134,0,134,0,221.13859819999197,,221.08268609999504,10,221.13859819999197,221.13859819999197,0.03080380000756122,222.15718349999224,226.42601979999745,[-0.2658333333333333],[0.4691666666666667],[1],[0],[0],[5.312480799999321],['target'],067869,001,2024-10-10_16h13.41.212,visual search,2024.1.5,None,2024-10-10 16h13.49.054253 +0530,
135,0,135,0,226.48651010000322,,226.4289917999995,10,226.48651010000322,226.48651010000322,0.03195920000143815,227.52514349999547,234.20192459999816,[0.058333333333333334],[-0.3175],[1],[0],[0],[7.741107199995895],['target'],067869,001,2024-10-10_16h13.41.212,visual search,2024.1.5,None,2024-10-10 16h13.49.054253 +0530,
136,0,136,0,234.28563830000348,,234.20753749999858,10,234.28563830000348,234.28563830000348,0.033112499993876554,235.3187326000043,235.93143549999513,[-0.07833333333333334],[0.0008333333333333334],[1],[0],[0],[1.6914248999964911],['target'],067869,001,2024-10-10_16h13.41.212,visual search,2024.1.5,None,2024-10-10 16h13.49.054253 +0530,
137,0,137,0,235.96261899999809,,235.9348725000018,5,235.96261899999809,235.96261899999809,0.018867899998440407,236.97578429999703,237.37840299999516,[0.3433333333333333],[-0.0325],[1],[0],[0],[1.4249763999978313],['target'],067869,001,2024-10-10_16h13.41.212,visual search,2024.1.5,None,2024-10-10 16h13.49.054253 +0530,
138,0,138,0,237.41515000000072,,237.38238619999902,5,237.41515000000072,237.41515000000072,0.020224200008669868,238.42574019999302,238.52708499999426,[0.37833333333333335],[0.02],[1],[0],[0],[1.1248315999982879],['target'],067869,001,2024-10-10_16h13.41.212,visual search,2024.1.5,None,2024-10-10 16h13.49.054253 +0530,
139,0,139,0,238.56192229999579,,238.53096439999354,5,238.56192229999579,238.56192229999579,0.02042250000522472,239.57536509999773,240.2953536999994,[-0.0275],[-0.2975],[1],[0],[0],[1.7442484000057448],['target'],067869,001,2024-10-10_16h13.41.212,visual search,2024.1.5,None,2024-10-10 16h13.49.054253 +0530,
140,0,140,0,240.334749799993,,240.2989232999971,5,240.334749799993,240.334749799993,0.026355199996032752,241.34649309999077,241.5945248999924,[0.20166666666666666],[-0.008333333333333333],[1],[0],[0],[1.2692686999944272],['target'],067869,001,2024-10-10_16h13.41.212,visual search,2024.1.5,None,2024-10-10 16h13.49.054253 +0530,
141,0,141,0,241.65136789999087,,241.59845419999328,10,241.65136789999087,241.65136789999087,0.03508490000967868,242.6509556999954,244.033345799995,[0.44],[-0.008333333333333333],[1],[0],[0],[2.4001553999987664],[],067869,001,2024-10-10_16h13.41.212,visual search,2024.1.5,None,2024-10-10 16h13.49.054253 +0530,
142,0,142,0,244.06564099999378,,244.03754879999906,5,244.06564099999378,244.06564099999378,0.019007099996088073,245.07573499999125,249.46058260000427,[-0.15916666666666668],[0.035833333333333335],[1],[0],[0],[5.4048459000041476],['target'],067869,001,2024-10-10_16h13.41.212,visual search,2024.1.5,None,2024-10-10 16h13.49.054253 +0530,
143,0,143,0,249.5286030999996,,249.4646170999913,10,249.5286030999996,249.5286030999996,0.04446829999506008,250.5342254999996,255.20469620000222,[0.0016666666666666668],[0.0075],[1],[0],[0],[5.6960641000041505],['target'],067869,001,2024-10-10_16h13.41.212,visual search,2024.1.5,None,2024-10-10 16h13.49.054253 +0530,
144,0,144,0,255.27033529999608,,255.20791199999803,10,255.27033529999608,255.27033529999608,0.03452539999852888,256.28170140000293,256.61286789999576,[-0.39666666666666667],[0.2733333333333333],[1],[0],[0],[1.3704369000042789],['target'],067869,001,2024-10-10_16h13.41.212,visual search,2024.1.5,None,2024-10-10 16h13.49.054253 +0530,
145,0,145,0,256.65224159999343,,256.61645819999103,5,256.65224159999343,256.65224159999343,0.020252100002835505,257.65887269999075,258.42817109999305,[0.28583333333333333],[-0.10333333333333333],[1],[0],[0],[1.7916276000032667],['target'],067869,001,2024-10-10_16h13.41.212,visual search,2024.1.5,None,2024-10-10 16h13.49.054253 +0530,
146,0,146,0,258.4934026999981,,258.4325280000048,10,258.4934026999981,258.4934026999981,0.03679030000057537,259.5093850999983,259.6286811000027,[0.3525],[0.22833333333333333],[1],[0],[0],[1.1599520999880042],['target'],067869,001,2024-10-10_16h13.41.212,visual search,2024.1.5,None,2024-10-10 16h13.49.054253 +0530,
147,0,147,0,259.6688698999933,,259.63227760000154,5,259.6688698999933,259.6688698999933,0.02064980000432115,260.676304099994,260.7942899000045,[0.27666666666666667],[0.255],[1],[0],[0],[1.1415579000022262],['target'],067869,001,2024-10-10_16h13.41.212,visual search,2024.1.5,None,2024-10-10 16h13.49.054253 +0530,
148,0,148,0,260.85445179999806,,260.7976386999944,10,260.85445179999806,260.85445179999806,0.03412609999941196,261.868879799993,262.1809230999934,[-0.20333333333333334],[0.4216666666666667],[1],[0],[0],[1.3493424000043888],['target'],067869,001,2024-10-10_16h13.41.212,visual search,2024.1.5,None,2024-10-10 16h13.49.054253 +0530,
149,0,149,0,262.2162241000042,,262.18442809999397,5,262.2162241000042,262.2162241000042,0.01928059999772813,263.2258937000006,263.5775092999975,[0.25833333333333336],[-0.28],[1],[0],[0],[1.373979000010877],['target'],067869,001,2024-10-10_16h13.41.212,visual search,2024.1.5,None,2024-10-10 16h13.49.054253 +0530,
150,0,150,0,263.63649299999815,,263.58178439999756,10,263.63649299999815,263.63649299999815,0.03562710000551306,264.64346659999865,264.8660722999921,[0.10166666666666667],[-0.38333333333333336],[1],[0],[0],[1.249055500011309],['target'],067869,001,2024-10-10_16h13.41.212,visual search,2024.1.5,None,2024-10-10 16h13.49.054253 +0530,
151,0,151,0,264.90182749999803,,264.8695769000042,5,264.90182749999803,264.90182749999803,0.019491700004437007,265.9087851999939,266.67796829999133,[0.4825],[-0.44583333333333336],[1],[0],[0],[1.7890254000085406],['target'],067869,001,2024-10-10_16h13.41.212,visual search,2024.1.5,None,2024-10-10 16h13.49.054253 +0530,
152,0,152,0,266.7182104999956,,266.682375999997,5,266.7182104999956,266.7182104999956,0.021521500006201677,267.72624849999556,268.16092480000225,[-0.12083333333333333],[0.13083333333333333],[1],[0],[0],[1.4573873000044841],['target'],067869,001,2024-10-10_16h13.41.212,visual search,2024.1.5,None,2024-10-10 16h13.49.054253 +0530,
153,0,153,0,268.19639270000334,,268.1650738000026,5,268.19639270000334,268.19639270000334,0.020204000000376254,269.2095842999988,269.46321269999316,[0.25583333333333336],[0.21],[1],[0],[0],[1.2782297999947332],['target'],067869,001,2024-10-10_16h13.41.212,visual search,2024.1.5,None,2024-10-10 16h13.49.054253 +0530,
154,0,154,0,269.50180929999624,,269.46897879999597,5,269.50180929999624,269.50180929999624,0.023085799999535084,270.50997440000356,270.8620563000004,[0.2791666666666667],[0.22333333333333333],[1],[0],[0],[1.3706799000065075],['target'],067869,001,2024-10-10_16h13.41.212,visual search,2024.1.5,None,2024-10-10 16h13.49.054253 +0530,
155,0,155,0,270.91675560000294,,270.8656115000049,10,270.91675560000294,270.91675560000294,0.034145199999329634,271.9340511999908,272.26893419999396,[-0.38916666666666666],[0.4033333333333333],[1],[0],[0],[1.3694858999951975],['target'],067869,001,2024-10-10_16h13.41.212,visual search,2024.1.5,None,2024-10-10 16h13.49.054253 +0530,
156,0,156,0,272.4111588999949,,272.2759589999914,10,272.4111588999949,272.4111588999949,0.10023929999442771,273.44757010000467,273.6289887000021,[-0.24333333333333335],[-0.2725],[1],[0],[0],[1.2534748000034597],['target'],067869,001,2024-10-10_16h13.41.212,visual search,2024.1.5,None,2024-10-10 16h13.49.054253 +0530,
157,0,157,0,273.6682617000042,,273.6342153000005,5,273.6682617000042,273.6682617000042,0.02351450000423938,274.67713789999834,274.77854309999384,[-0.08416666666666667],[-0.03833333333333333],[1],[0],[0],[1.1217779999860795],['target'],067869,001,2024-10-10_16h13.41.212,visual search,2024.1.5,None,2024-10-10 16h13.49.054253 +0530,
158,0,158,0,274.8405950000015,,274.78240569999616,10,274.8405950000015,274.8405950000015,0.03490620000229683,275.85129049999523,276.4611479000014,[0.4725],[0.27166666666666667],[1],[0],[0],[1.6442424999986542],['target'],067869,001,2024-10-10_16h13.41.212,visual search,2024.1.5,None,2024-10-10 16h13.49.054253 +0530,
159,0,159,0,276.5043575000018,,276.4649899999931,5,276.5043575000018,276.5043575000018,0.02652529999613762,277.5095966999943,277.7635215999908,[-0.43083333333333335],[0.26666666666666666],[1],[0],[0],[1.2722979999962263],['target'],067869,001,2024-10-10_16h13.41.212,visual search,2024.1.5,None,2024-10-10 16h13.49.054253 +0530,
160,0,160,0,277.8444313999935,,277.76754059999075,10,277.8444313999935,277.8444313999935,0.05171210000116844,278.8644060999941,279.3046459000034,[0.4558333333333333],[0.020833333333333332],[1],[0],[0],[1.4856838999985484],['target'],067869,001,2024-10-10_16h13.41.212,visual search,2024.1.5,None,2024-10-10 16h13.49.054253 +0530,
161,0,161,0,279.37612570000056,,279.30866749999404,10,279.37612570000056,279.37612570000056,0.038717799994628876,280.40089229999285,280.69642219999514,[-0.0016666666666666668],[0.3433333333333333],[1],[0],[0],[1.3495656000013696],['target'],067869,001,2024-10-10_16h13.41.212,visual search,2024.1.5,None,2024-10-10 16h13.49.054253 +0530,
162,0,162,0,280.7880917000002,,280.70102559999214,10,280.7880917000002,280.7880917000002,0.04437240000697784,281.81444380000175,281.8159328000038,[0.26166666666666666],[0.4666666666666667],[1],[0],[0],[1.0708129999984521],['target'],067869,001,2024-10-10_16h13.41.212,visual search,2024.1.5,None,2024-10-10 16h13.49.054253 +0530,
163,0,163,0,281.86089539999375,,281.8194225999905,5,281.86089539999375,281.86089539999375,0.025700700003653765,282.8767224000039,283.66439150000224,[0.1225],[0.25333333333333335],[1],[0],[0],[1.8195848999894224],['target'],067869,001,2024-10-10_16h13.41.212,visual search,2024.1.5,None,2024-10-10 16h13.49.054253 +0530,
164,0,164,0,283.7060438000044,,283.6686176999938,5,283.7060438000044,283.7060438000044,0.025357300008181483,284.7097885999974,284.865332699992,[-0.37],[-0.15333333333333332],[1],[0],[0],[1.1715259000047809],['target'],067869,001,2024-10-10_16h13.41.212,visual search,2024.1.5,None,2024-10-10 16h13.49.054253 +0530,
165,0,165,0,284.90938850000384,,284.8711586999998,5,284.90938850000384,284.90938850000384,0.02722580000408925,285.9099217000039,285.9118560999923,[0.24583333333333332],[0.4141666666666667],[1],[0],[0],[1.015299300008337],['target'],067869,001,2024-10-10_16h13.41.212,visual search,2024.1.5,None,2024-10-10 16h13.49.054253 +0530,
166,0,166,0,285.9902219999931,,285.9166162000038,10,285.9902219999931,285.9902219999931,0.04416049999417737,287.0090104999981,287.58498889999464,[0.30333333333333334],[-0.06166666666666667],[1],[0],[0],[1.6241739999968559],[],067869,001,2024-10-10_16h13.41.212,visual search,2024.1.5,None,2024-10-10 16h13.49.054253 +0530,
167,0,167,0,287.6250214000029,,287.589676699994,5,287.6250214000029,287.6250214000029,0.0214611999981571,288.6268074999971,289.17932070000097,[-0.25333333333333335],[-0.15916666666666668],[1],[0],[0],[1.5688369999988936],['target'],067869,001,2024-10-10_16h13.41.212,visual search,2024.1.5,None,2024-10-10 16h13.49.054253 +0530,
168,0,168,0,289.26094629999716,,289.18444029999955,10,289.26094629999716,289.26094629999716,0.048436600001878105,290.2727270000032,290.84389669999655,[0.38416666666666666],[0.11166666666666666],[1],[0],[0],[1.6115225000103237],['target'],067869,001,2024-10-10_16h13.41.212,visual search,2024.1.5,None,2024-10-10 16h13.49.054253 +0530,
169,0,169,0,290.884083500001,,290.84719829999085,5,290.884083500001,290.884083500001,0.025606899987906218,291.893473499993,292.3450578000047,[0.07583333333333334],[0.36916666666666664],[1],[0],[0],[1.472420999998576],['target'],067869,001,2024-10-10_16h13.41.212,visual search,2024.1.5,None,2024-10-10 16h13.49.054253 +0530,
170,0,170,0,292.3787740999978,,292.3489017999964,5,292.3787740999978,292.3787740999978,0.019299399995361455,293.3930055999954,293.72842479999235,[-0.19083333333333333],[-0.32416666666666666],[1],[0],[0],[1.3605275000008987],[],067869,001,2024-10-10_16h13.41.212,visual search,2024.1.5,None,2024-10-10 16h13.49.054253 +0530,
171,0,171,0,293.7646299999906,,293.73242289999325,5,293.7646299999906,293.7646299999906,0.019534599996404722,294.7781560000003,295.3614727999957,[0.12833333333333333],[0.30833333333333335],[1],[0],[0],[1.6097458000003826],['target'],067869,001,2024-10-10_16h13.41.212,visual search,2024.1.5,None,2024-10-10 16h13.49.054253 +0530,
172,0,172,0,295.42542539999704,,295.3659748999926,10,295.42542539999704,295.42542539999704,0.0400491000036709,296.4494210999983,296.7292773999943,[-0.3516666666666667],[0.2791666666666667],[1],[0],[0],[1.323844199985615],['target'],067869,001,2024-10-10_16h13.41.212,visual search,2024.1.5,None,2024-10-10 16h13.49.054253 +0530,
173,0,173,0,296.79140400000324,,296.73258630000055,10,296.79140400000324,296.79140400000324,0.03477910000947304,297.8127070000046,297.96964209999715,[0.19083333333333333],[0.22333333333333333],[1],[0],[0],[1.2024830000009388],['target'],067869,001,2024-10-10_16h13.41.212,visual search,2024.1.5,None,2024-10-10 16h13.49.054253 +0530,
174,0,174,0,298.042074099998,,297.9750008999981,10,298.042074099998,298.042074099998,0.03369889999157749,299.0818677999923,299.08407420000003,[0.050833333333333335],[0.19],[1],[0],[0],[1.0758637999970233],['target'],067869,001,2024-10-10_16h13.41.212,visual search,2024.1.5,None,2024-10-10 16h13.49.054253 +0530,
175,0,175,0,299.15848159999587,,299.0883594999905,10,299.15848159999587,299.15848159999587,0.03668420000758488,300.2012650999968,300.42612129999907,[0.44],[0.415],[1],[0],[0],[1.301430999999866],['target'],067869,001,2024-10-10_16h13.41.212,visual search,2024.1.5,None,2024-10-10 16h13.49.054253 +0530,
176,0,176,0,300.46063929999946,,300.42947390000336,5,300.46063929999946,300.46063929999946,0.019296900005429052,301.46053850000317,301.7306413999904,[0.005833333333333334],[-0.2991666666666667],[1],[0],[0],[1.2817248000064865],[],067869,001,2024-10-10_16h13.41.212,visual search,2024.1.5,None,2024-10-10 16h13.49.054253 +0530,
177,0,177,0,301.76794900000095,,301.7363239999977,5,301.76794900000095,301.76794900000095,0.022563799997442402,302.7776697999943,302.928041399995,[0.0325],[0.04666666666666667],[1],[0],[0],[1.1700050000072224],['target'],067869,001,2024-10-10_16h13.41.212,visual search,2024.1.5,None,2024-10-10 16h13.49.054253 +0530,
178,0,178,0,302.9835555000027,,302.93195109999215,10,302.9835555000027,302.9835555000027,0.03478630000608973,304.00569550000364,304.1955358999985,[-0.105],[0.2],[1],[0],[0],[1.2291489000053843],['target'],067869,001,2024-10-10_16h13.41.212,visual search,2024.1.5,None,2024-10-10 16h13.49.054253 +0530,
179,0,179,0,304.2558239999926,,304.1987947000016,10,304.2558239999926,304.2558239999926,0.03460439998889342,305.2773903999914,305.4330912000005,[0.19833333333333333],[-0.15416666666666667],[1],[0],[0],[1.199663999999757],['target'],067869,001,2024-10-10_16h13.41.212,visual search,2024.1.5,None,2024-10-10 16h13.49.054253 +0530,
180,0,180,0,305.495095899998,,305.4360563999944,10,305.495095899998,305.495095899998,0.030938399999286048,306.52496129999054,306.6931918999908,[-0.14],[-0.0125],[1],[0],[0],[1.226305099989986],['target'],067869,001,2024-10-10_16h13.41.212,visual search,2024.1.5,None,2024-10-10 16h13.49.054253 +0530,
181,0,181,0,306.86477669999294,,306.6968663000007,10,306.86477669999294,306.86477669999294,0.13114100000530016,307.89398330000404,308.0549417000002,[-0.24666666666666667],[0.26666666666666666],[1],[0],[0],[1.2270770000031916],['target'],067869,001,2024-10-10_16h13.41.212,visual search,2024.1.5,None,2024-10-10 16h13.49.054253 +0530,
182,0,182,0,308.0867100000032,,308.0606037999969,5,308.0867100000032,308.0867100000032,0.01763580000260845,309.09437569999136,309.3633905000024,[0.18083333333333335],[0.0025],[1],[0],[0],[1.2856133000022965],[],067869,001,2024-10-10_16h13.41.212,visual search,2024.1.5,None,2024-10-10 16h13.49.054253 +0530,
183,0,183,0,309.4010849999904,,309.3670562000043,5,309.4010849999904,309.4010849999904,0.01911990001099184,310.41116829999373,310.74528609999106,[-0.395],[0.05],[1],[0],[0],[1.3593649999966146],['target'],067869,001,2024-10-10_16h13.41.212,visual search,2024.1.5,None,2024-10-10 16h13.49.054253 +0530,
184,0,184,0,310.8068760000024,,310.7490589999943,10,310.8068760000024,310.8068760000024,0.03415780000796076,311.8327871999936,312.79789339999843,[-0.10916666666666666],[-0.19916666666666666],[1],[0],[0],[2.0149460999964504],[],067869,001,2024-10-10_16h13.41.212,visual search,2024.1.5,None,2024-10-10 16h13.49.054253 +0530,
185,0,185,0,312.87433639999654,,312.8008393999917,10,312.87433639999654,312.87433639999654,0.03664850001223385,,313.72994059999473,[-0.05333333333333334],[-0.12333333333333334],[1],[0],[0],[0.8925976000027731],['target'],067869,001,2024-10-10_16h13.41.212,visual search,2024.1.5,None,2024-10-10 16h13.49.054253 +0530,
186,0,186,0,313.76188170000387,,313.7331226999959,5,313.76188170000387,313.76188170000387,0.01897619999363087,314.77834289999737,315.3124262999918,[0.48083333333333333],[0.285],[1],[0],[0],[1.5604854999983218],['target'],067869,001,2024-10-10_16h13.41.212,visual search,2024.1.5,None,2024-10-10 16h13.49.054253 +0530,
187,0,187,0,315.3462609999988,,315.3168105999939,5,315.3462609999988,315.3462609999988,0.019076000011409633,,316.29528419999406,[0.36916666666666664],[0.1175],[1],[0],[0],[0.9597071000025608],['target'],067869,001,2024-10-10_16h13.41.212,visual search,2024.1.5,None,2024-10-10 16h13.49.054253 +0530,
188,0,188,0,316.3551401000004,,316.29879689999507,10,316.3551401000004,316.3551401000004,0.034426699989126064,,317.3378659000009,[0.375],[0.36833333333333335],[1],[0],[0],[1.004822000002605],['target'],067869,001,2024-10-10_16h13.41.212,visual search,2024.1.5,None,2024-10-10 16h13.49.054253 +0530,
189,0,189,0,317.3709844999976,,317.34113040000375,5,317.3709844999976,317.3709844999976,0.015815699996892363,318.37767950000125,318.579888799999,[-0.22833333333333333],[-0.3233333333333333],[1],[0],[0],[1.2230097999999998],[],067869,001,2024-10-10_16h13.41.212,visual search,2024.1.5,None,2024-10-10 16h13.49.054253 +0530,
190,0,190,0,318.61558949999744,,318.58364379999693,5,318.61558949999744,318.61558949999744,0.020037499998579733,319.6277770000015,319.72941240000364,[0.155],[0.0425],[1],[0],[0],[1.1259510000090813],['target'],067869,001,2024-10-10_16h13.41.212,visual search,2024.1.5,None,2024-10-10 16h13.49.054253 +0530,
191,0,191,0,319.788143999991,,319.7337176000001,10,319.788143999991,319.788143999991,0.033863800010294653,320.80002549999335,321.462970099994,[-0.4866666666666667],[-0.27666666666666667],[1],[0],[0],[1.6954906000028132],[],067869,001,2024-10-10_16h13.41.212,visual search,2024.1.5,None,2024-10-10 16h13.49.054253 +0530,
192,0,192,0,321.537098300003,,321.46750440000324,10,321.537098300003,321.537098300003,0.04286339999816846,322.5551112999965,322.784788799996,[0.22333333333333333],[0.13416666666666666],[1],[0],[0],[1.2747057999949902],['target'],067869,001,2024-10-10_16h13.41.212,visual search,2024.1.5,None,2024-10-10 16h13.49.054253 +0530,
193,0,193,0,322.81490319999284,,322.78813249999075,5,322.81490319999284,322.81490319999284,0.0180607000074815,323.8276981999952,323.9298768000008,[-0.3375],[-0.08083333333333333],[1],[0],[0],[1.1239892000012333],['target'],067869,001,2024-10-10_16h13.41.212,visual search,2024.1.5,None,2024-10-10 16h13.49.054253 +0530,
194,0,194,0,323.9624565999984,,323.9332562999916,5,323.9624565999984,323.9624565999984,0.018887099999119528,324.9619778999913,325.02877279999666,[0.35833333333333334],[0.30583333333333335],[1],[0],[0],[1.076840000008815],['target'],067869,001,2024-10-10_16h13.41.212,visual search,2024.1.5,None,2024-10-10 16h13.49.054253 +0530,
195,0,195,0,325.06285760000173,,325.0325703999988,5,325.06285760000173,325.06285760000173,0.020213600000715815,326.0767179999966,326.5296636999992,[0.09416666666666666],[0.11666666666666667],[1],[0],[0],[1.4770892999949865],['target'],067869,001,2024-10-10_16h13.41.212,visual search,2024.1.5,None,2024-10-10 16h13.49.054253 +0530,
196,0,196,0,326.5742426999932,,326.53429049999977,5,326.5742426999932,326.5742426999932,0.023724499988020398,327.5767890999996,327.62833999999566,[0.41083333333333333],[0.20166666666666666],[1],[0],[0],[1.070672800007742],[],067869,001,2024-10-10_16h13.41.212,visual search,2024.1.5,None,2024-10-10 16h13.49.054253 +0530,
197,0,197,0,327.698510599992,,327.6327403000032,10,327.698510599992,327.698510599992,0.044756999996025115,328.7082451000024,328.98007900000084,[-0.14666666666666667],[0.27166666666666667],[1],[0],[0],[1.303694699992775],['target'],067869,001,2024-10-10_16h13.41.212,visual search,2024.1.5,None,2024-10-10 16h13.49.054253 +0530,
198,0,198,0,329.0628032999957,,328.98512219999975,10,329.0628032999957,329.0628032999957,0.05055939999874681,330.076954499993,330.9996781999944,[-0.5016666666666667],[-0.45916666666666667],[1],[0],[0],[1.965115999992122],['target'],067869,001,2024-10-10_16h13.41.212,visual search,2024.1.5,None,2024-10-10 16h13.49.054253 +0530,
199,0,199,0,331.0392533999984,,331.00457389999065,5,331.0392533999984,331.0392533999984,0.0241093000076944,332.04507799999556,332.1488062999997,[0.20333333333333334],[0.075],[1],[0],[0],[1.12043779999658],['target'],067869,001,2024-10-10_16h13.41.212,visual search,2024.1.5,None,2024-10-10 16h13.49.054253 +0530,
