delay,freq,condition,trials.thisRepN,trials.thisTrialN,trials.thisN,trials.thisIndex,thisRow.t,notes,trial.started,polygon.started,polygon_2.started,key_resp.started,polygon.stopped,trial.stopped,key_resp.keys,key_resp.rt,key_resp.duration,beep.started,sound_1.started,sound_1.stopped,beep.stopped,response.started,text.started,textbox.started,button.started,response.stopped,textbox.text,button.numClicks,button.timesOn,button.timesOff,participant,session,date,expName,psychopyVersion,frameRate,expStart,
0.4,1000,exp,0,0,0,4,0.01751529984176159,,0.014310500118881464,0.01751529984176159,1.0072765001095831,1.0072765001095831,1.024138200096786,4.6267253998667,space,3.6073365001939237,None,4.628364100120962,5.040589766638974,5.356791799888015,5.338640400208533,5.338705999776721,5.356791799888015,5.356791799888015,5.356791799888015,8.80887209996581,99,1,[3.467059100046754],[3.4670683997683227],109609,001,2024-11-11_11h11.53.026,intentional binding,2024.1.5,None,2024-11-11 11h11.59.764038 +0530,
0.7,1000,exp,0,1,1,11,8.8237542998977,,8.81019979994744,8.8237542998977,9.8235821002163,9.8235821002163,9.8235821002163,13.19340609991923,space,3.359489700291306,None,13.194759199861437,13.907404566711437,14.224904499948025,14.209057999774814,14.2091164002195,14.224904499948025,14.224904499948025,14.224904499948025,15.65965999988839,67,1,[1.4478556998074055],[1.4478679997846484],109609,001,2024-11-11_11h11.53.026,intentional binding,2024.1.5,None,2024-11-11 11h11.59.764038 +0530,
0.1,1000,exp,0,2,2,9,15.674019299913198,,15.660908699966967,15.674019299913198,16.674509500153363,16.674509500153363,16.674509500153363,17.227369300089777,space,0.5473405998200178,None,17.22817760007456,17.341229966903725,17.652019300032407,17.638276000041515,17.63832309981808,17.652019300032407,17.652019300032407,17.652019300032407,19.459814299829304,45,1,[1.8184831999242306],[1.8184968996793032],109609,001,2024-11-11_11h11.53.026,intentional binding,2024.1.5,None,2024-11-11 11h11.59.764038 +0530,
0.4,1000,exp,0,3,3,7,19.474156599957496,,19.460962700191885,19.474156599957496,20.474222199991345,20.474222199991345,20.474222199991345,25.193862699903548,space,4.707009600009769,None,25.194777800235897,25.607537166743228,25.923728100024164,25.909208999946713,25.909249300137162,25.923728100024164,25.923728100024164,25.923728100024164,27.292603500187397,768,1,[1.3813380002975464],[1.3813492003828287],109609,001,2024-11-11_11h11.53.026,intentional binding,2024.1.5,None,2024-11-11 11h11.59.764038 +0530,
0.7,1000,exp,0,4,4,8,27.308002999983728,,27.2943934998475,27.308002999983728,28.307689900044352,28.307689900044352,28.307689900044352,32.626504600048065,space,4.310748400166631,None,32.627288499847054,33.34137626650433,33.65456480020657,33.63913010014221,33.6391754001379,33.65456480020657,33.65456480020657,33.65456480020657,34.92542179999873,567,1,[1.2839835002087057],[1.283993300050497],109609,001,2024-11-11_11h11.53.026,intentional binding,2024.1.5,None,2024-11-11 11h11.59.764038 +0530,
0.7,1000,exp,0,5,5,5,34.94048949982971,,34.92631429992616,34.94048949982971,35.94040990015492,35.94040990015492,35.94040990015492,36.593124200124294,space,0.6490915003232658,None,36.59389440016821,37.30750886683042,37.62472889991477,37.609635199885815,37.60970799997449,37.62472889991477,37.62472889991477,37.62472889991477,38.960896799806505,54,1,[1.348365199752152],[1.3483838001266122],109609,001,2024-11-11_11h11.53.026,intentional binding,2024.1.5,None,2024-11-11 11h11.59.764038 +0530,
0.1,1000,exp,0,6,6,6,38.97431779978797,,38.962346999906,38.97431779978797,39.974682699888945,39.974682699888945,39.974682699888945,42.84358000010252,space,2.8584821997210383,None,42.84435429982841,42.957756866763035,43.27505599986762,43.2597491000779,43.259812499862164,43.27505599986762,43.27505599986762,43.27505599986762,44.15899639995769,34,1,[0.8966713002882898],[0.896681200247258],109609,001,2024-11-11_11h11.53.026,intentional binding,2024.1.5,None,2024-11-11 11h11.59.764038 +0530,
0.4,4000,unexp,0,7,7,1,44.174366699997336,,44.159688599873334,44.174366699997336,45.17484050011262,45.17484050011262,45.17484050011262,49.84359099995345,space,4.6623746999539435,None,49.84424010012299,50.25810986670355,50.573877499904484,50.560578799806535,50.560631699860096,50.573877499904484,50.573877499904484,50.573877499904484,51.75938649987802,700,1,[1.1965000997297466],[1.1965106995776296],109609,001,2024-11-11_11h11.53.026,intentional binding,2024.1.5,None,2024-11-11 11h11.59.764038 +0530,
0.7,4000,unexp,0,8,8,2,51.77451829984784,,51.76029849983752,51.77451829984784,52.774841600097716,52.774841600097716,52.774841600097716,56.99181240005419,space,4.206838599871844,None,56.992215199861676,57.70748706680412,58.020821399986744,58.00430430006236,58.00435810023919,58.020821399986744,58.020821399986744,58.020821399986744,59.27578879985958,34,1,[1.268775699660182],[1.2687865998595953],109609,001,2024-11-11_11h11.53.026,intentional binding,2024.1.5,None,2024-11-11 11h11.59.764038 +0530,
0.1,1000,exp,0,9,9,3,59.290987899992615,,59.27691259980202,59.290987899992615,60.291048000101,60.291048000101,60.291048000101,60.57859259983525,space,0.28497610008344054,None,60.58009839989245,60.691971666707346,61.007925199810416,60.992839499842376,60.99287379998714,61.007925199810416,61.007925199810416,61.007925199810416,62.87913350015879,346,1,[1.8841316998004913],[1.8841496999375522],109609,001,2024-11-11_11h11.53.026,intentional binding,2024.1.5,None,2024-11-11 11h11.59.764038 +0530,
0.4,1000,exp,0,10,10,10,62.89114749990404,,62.880417299922556,62.89114749990404,63.89219120005146,63.89219120005146,63.89219120005146,64.19364160019904,space,0.2944192998111248,None,64.19461169978604,64.60820656648526,64.92385279992595,64.91071530012414,64.91077069984749,64.92385279992595,64.92385279992595,64.92385279992595,67.14371720002964,654 ,1,[2.230605199933052],[2.2306174002587795],109609,001,2024-11-11_11h11.53.026,intentional binding,2024.1.5,None,2024-11-11 11h11.59.764038 +0530,
0.1,4000,unexp,0,11,11,0,67.15893239993602,,67.14535149978474,67.15893239993602,68.1580338999629,68.1580338999629,68.17550509981811,71.27654189988971,space,3.1152356998063624,None,71.27725679986179,71.39158596663425,71.70754239987582,71.69525559991598,71.6952999997884,71.70754239987582,71.70754239987582,71.70754239987582,73.64259199984372,408,1,[1.945268000010401],[1.9452765001915395],109609,001,2024-11-11_11h11.53.026,intentional binding,2024.1.5,None,2024-11-11 11h11.59.764038 +0530,
0.4,1000,exp,1,0,12,7,73.65856719994918,,73.64332519983873,73.65856719994918,74.65813229978085,74.65813229978085,74.65813229978085,78.2262904997915,space,3.5535416998900473,None,78.22707120003179,78.64182406670103,78.9581749998033,78.94529249984771,78.94532290007919,78.9581749998033,78.9581749998033,78.9581749998033,80.84314040001482,45,1,[1.895677300170064],[1.8956860001198947],109609,001,2024-11-11_11h11.53.026,intentional binding,2024.1.5,None,2024-11-11 11h11.59.764038 +0530,
0.1,4000,unexp,1,1,13,0,80.85881400015205,,80.84421889996156,80.85881400015205,81.85874179983512,81.85874179983512,81.85874179983512,82.29470050008968,space,0.42470950027927756,None,82.29549719998613,82.40846136684219,82.72302109980956,82.71088099991903,82.71097100013867,82.72302109980956,82.72302109980956,82.72302109980956,85.0769008002244,567 ,1,[2.3636145000346005],[2.363627899903804],109609,001,2024-11-11_11h11.53.026,intentional binding,2024.1.5,None,2024-11-11 11h11.59.764038 +0530,
0.7,1000,exp,1,2,14,8,85.09189809998497,,85.07780870003626,85.09189809998497,86.09151449985802,86.09151449985802,86.09151449985802,86.8593965000473,space,0.756976299919188,None,86.86018590023741,87.57558736676971,87.88270229985937,87.8707552999258,87.87079840013757,87.88270229985937,87.88270229985937,87.88270229985937,90.59459509979934,345 ,1,[2.721727699972689],[2.72173639992252],109609,001,2024-11-11_11h11.53.026,intentional binding,2024.1.5,None,2024-11-11 11h11.59.764038 +0530,
0.7,1000,exp,1,3,15,5,90.60877759987488,,90.59540029987693,90.60877759987488,91.60938150016591,91.60938150016591,91.60938150016591,93.97863289993256,space,2.3656307999044657,None,93.97944020014256,94.69242916681493,95.00586420018226,94.99153540004045,94.99159950017929,95.00586420018226,95.00586420018226,95.00586420018226,96.51065809978172,907,1,[1.5167304002679884],[1.5167384999804199],109609,001,2024-11-11_11h11.53.026,intentional binding,2024.1.5,None,2024-11-11 11h11.59.764038 +0530,
0.1,1000,exp,1,4,16,9,96.525571399834,,96.51153340004385,96.525571399834,97.52566140005365,97.52566140005365,97.52566140005365,100.47847949992865,space,2.9347695000469685,None,100.47951939981431,100.59239306679616,100.90630279993638,100.89255560003221,100.89262050017715,100.90630279993638,100.90630279993638,100.90630279993638,105.91127770021558,456,1,[5.015536199789494],[5.015546799637377],109609,001,2024-11-11_11h11.53.026,intentional binding,2024.1.5,None,2024-11-11 11h11.59.764038 +0530,
0.4,1000,exp,1,5,17,10,105.92546269996092,,105.91232880018651,105.92546269996092,106.92619899986312,106.92619899986312,106.92619899986312,111.66276099998504,space,4.730023899581283,None,111.66354250023142,112.0763342665198,112.38688489980996,112.37185399979353,112.37191009987146,112.38688489980996,112.38688489980996,112.38688489980996,114.59473440004513,34,1,[2.220389499794692],[2.2204012000001967],109609,001,2024-11-11_11h11.53.026,intentional binding,2024.1.5,None,2024-11-11 11h11.59.764038 +0530,
0.1,1000,exp,1,6,18,6,114.60948830004781,,114.59575140010566,114.60948830004781,115.60939770005643,115.60939770005643,115.60939770005643,121.2942629000172,space,5.674823800101876,None,121.29483349993825,121.4093504665109,121.72905729990453,121.71384949982166,121.71390070021152,121.72905729990453,121.72905729990453,121.72905729990453,125.67852339986712,758 ,1,[3.9622855000197887],[3.962297399993986],109609,001,2024-11-11_11h11.53.026,intentional binding,2024.1.5,None,2024-11-11 11h11.59.764038 +0530,
0.1,1000,exp,1,7,19,3,125.69258080003783,,125.67923260014504,125.69258080003783,126.69324050005525,126.69324050005525,126.69324050005525,128.86047219997272,space,2.1628900999203324,None,128.86099010007456,128.9759774665038,129.2825452000834,129.27188159991056,129.27191240014508,129.2825452000834,129.2825452000834,129.2825452000834,130.67818550020456,23,1,[1.403999499976635],[1.4040107000619173],109609,001,2024-11-11_11h11.53.026,intentional binding,2024.1.5,None,2024-11-11 11h11.59.764038 +0530,
0.7,1000,exp,1,8,20,11,130.69296409981325,,130.67921179998666,130.69296409981325,131.69303200021386,131.69303200021386,131.69303200021386,134.561811900232,space,2.8580593997612596,None,134.5635476000607,135.27652056661125,135.59102080017328,135.5735339000821,135.57358189998195,135.59102080017328,135.59102080017328,135.59102080017328,137.21252130018547,986,1,[1.6356362998485565],[1.635650500189513],109609,001,2024-11-11_11h11.53.026,intentional binding,2024.1.5,None,2024-11-11 11h11.59.764038 +0530,
0.7,4000,unexp,1,9,21,2,137.2264697998762,,137.21443769987673,137.2264697998762,138.2265920001082,138.2265920001082,138.2265920001082,140.89618249982595,space,2.659020199906081,None,140.89707140019163,141.61002826650318,141.92267670016736,141.9079990000464,141.9080509999767,141.92267670016736,141.92267670016736,141.92267670016736,145.14466009987518,23,1,[3.234415099956095],[3.234429799951613],109609,001,2024-11-11_11h11.53.026,intentional binding,2024.1.5,None,2024-11-11 11h11.59.764038 +0530,
0.4,1000,exp,1,10,22,4,145.15989460004494,,145.14578490005806,145.15989460004494,146.16010340023786,146.16010340023786,146.16010340023786,148.8286899002269,space,2.6581516000442207,None,148.82972929999232,149.24371036660548,149.55885040014982,149.54324189992622,149.54329780023545,149.55885040014982,149.55885040014982,149.55885040014982,150.6464808001183,097,1,[1.0998523999005556],[1.0998690999113023],109609,001,2024-11-11_11h11.53.026,intentional binding,2024.1.5,None,2024-11-11 11h11.59.764038 +0530,
0.4,4000,unexp,1,11,23,1,150.66056099999696,,150.64781140023842,150.66056099999696,151.66027180012316,151.66027180012316,151.66027180012316,154.24611969990656,space,2.5731808999553323,None,154.2470023999922,154.66025446687516,154.9795311000198,154.96517040021718,154.96524399984628,154.9795311000198,154.9795311000198,154.9795311000198,156.61333469999954,34,1,[1.6449229000136256],[1.6449381997808814],109609,001,2024-11-11_11h11.53.026,intentional binding,2024.1.5,None,2024-11-11 11h11.59.764038 +0530,
0.1,1000,exp,2,0,24,9,156.6276365998201,,156.61466629989445,156.6276365998201,157.62697109999135,157.62697109999135,157.62697109999135,160.46314809983596,space,2.8225035001523793,None,160.46436520013958,160.57727926649775,160.88861430017278,160.87346530007198,160.8735038000159,160.88861430017278,160.88861430017278,160.88861430017278,162.99561680015177,34,1,[2.118928300216794],[2.118935900274664],109609,001,2024-11-11_11h11.53.026,intentional binding,2024.1.5,None,2024-11-11 11h11.59.764038 +0530,
0.1,1000,exp,2,1,25,6,163.01037879986688,,162.99626540020108,163.01037879986688,164.01084979996085,164.01084979996085,164.01084979996085,167.34675829997286,space,3.3259005998261273,None,167.34783999994397,167.46048676647868,167.7679701000452,167.75404989998788,167.7541052000597,167.7679701000452,167.7679701000452,167.7679701000452,171.37915170006454,45 ,1,[3.622568499762565],[3.62258780002594],109609,001,2024-11-11_11h11.53.026,intentional binding,2024.1.5,None,2024-11-11 11h11.59.764038 +0530,
0.4,1000,exp,2,2,26,10,171.39355830010027,,171.38004110008478,171.39355830010027,172.39420210011303,172.39420210011303,172.39420210011303,175.38037879997864,space,2.9723752001300454,None,175.3812237000093,175.79340896668535,176.1130813001655,176.09506099997088,176.09512049984187,176.1130813001655,176.1130813001655,176.1130813001655,178.47906900011003,99,1,[2.3815414998680353],[2.3815510999411345],109609,001,2024-11-11_11h11.53.026,intentional binding,2024.1.5,None,2024-11-11 11h11.59.764038 +0530,
0.7,1000,exp,2,3,27,5,178.49382119998336,,178.47989130020142,178.49382119998336,179.49420280009508,179.49420280009508,179.49420280009508,182.5305197001435,space,3.0224907002411783,None,182.53121459996328,183.24425866647314,183.5601963000372,183.5443970998749,183.5444897999987,183.5601963000372,183.5601963000372,183.5601963000372,184.9147505001165,1,1,[1.3667076998390257],[1.366722899954766],109609,001,2024-11-11_11h11.53.026,intentional binding,2024.1.5,None,2024-11-11 11h11.59.764038 +0530,
0.1,4000,unexp,2,4,28,0,184.92798259994015,,184.91588830016553,184.92798259994015,185.92763649998233,185.92763649998233,185.92763649998233,186.2973242001608,space,0.3626965996809304,None,186.29818980023265,186.41066686675575,186.72692470019683,186.71452589984983,186.71458119992167,186.72692470019683,186.72692470019683,186.72692470019683,189.29580920003355,54 ,1,[2.5792815000750124],[2.579289599787444],109609,001,2024-11-11_11h11.53.026,intentional binding,2024.1.5,None,2024-11-11 11h11.59.764038 +0530,
0.4,1000,exp,2,5,29,7,189.31084039993584,,189.29666619980708,189.31084039993584,190.3107695998624,190.3107695998624,190.3107695998624,193.5800133999437,space,3.2645996999926865,None,193.58070630021393,193.99473916652303,194.3108250000514,194.29499599989504,194.29505110019818,194.3108250000514,194.3108250000514,194.3108250000514,196.91167540010065,76,1,[2.614609899930656],[2.6146170999854803],109609,001,2024-11-11_11h11.53.026,intentional binding,2024.1.5,None,2024-11-11 11h11.59.764038 +0530,
0.4,1000,exp,2,6,30,4,196.92809680011123,,196.91288980003446,196.92809680011123,197.92763039981946,197.92763039981946,197.92763039981946,201.91341739986092,space,3.9735757000744343,None,201.9145992998965,202.32765306678291,202.64006619993597,202.62424350017682,202.62428409978747,202.64006619993597,202.64006619993597,202.64006619993597,205.0289254002273,433,1,[2.4028596999123693],[2.402867200318724],109609,001,2024-11-11_11h11.53.026,intentional binding,2024.1.5,None,2024-11-11 11h11.59.764038 +0530,
0.7,1000,exp,2,7,31,8,205.0443541998975,,205.02970860013738,205.0443541998975,206.04465760011226,206.04465760011226,206.04465760011226,207.94531209999695,space,1.8992941998876631,None,207.94585329992697,208.6612048666614,208.96809120010585,208.95465009985492,208.95470830006525,208.96809120010585,208.96809120010585,208.96809120010585,211.47906969999894,23,1,[2.522201499901712],[2.5222147000022233],109609,001,2024-11-11_11h11.53.026,intentional binding,2024.1.5,None,2024-11-11 11h11.59.764038 +0530,
0.7,4000,unexp,2,8,32,2,211.49420109996572,,211.48046420002356,211.49420109996572,212.4946876000613,212.4946876000613,212.4946876000613,215.84678519982845,space,3.3504073000513017,None,215.84795420011505,216.56139896676567,216.86910159979016,216.8549381000921,216.85499479994178,216.86910159979016,216.86910159979016,216.86910159979016,218.74675429984927,864,1,[1.8890796001069248],[1.889089500065893],109609,001,2024-11-11_11h11.53.026,intentional binding,2024.1.5,None,2024-11-11 11h11.59.764038 +0530,
0.1,1000,exp,2,9,33,3,218.76128360023722,,218.74772850004956,218.76128360023722,219.76158720022067,219.76158720022067,219.76158720022067,221.2137223999016,space,1.4399984003975987,None,221.21454170020297,221.32815716654684,221.6407229998149,221.62588849989697,221.62621949985623,221.6407229998149,221.6407229998149,221.6407229998149,223.77978090010583,34,1,[2.1510191997513175],[2.1510303998366],109609,001,2024-11-11_11h11.53.026,intentional binding,2024.1.5,None,2024-11-11 11h11.59.764038 +0530,
0.7,1000,exp,2,10,34,11,223.79445620020851,,223.78063199995086,223.79445620020851,224.79504630016163,224.79504630016163,224.79504630016163,228.03025510022417,space,3.2319665998220444,None,228.03190860012546,228.7453881665754,229.06013070000336,229.04826170019805,229.04829890001565,229.06013070000336,229.06013070000336,229.06013070000336,230.46449950011447,646,1,[1.4131287997588515],[1.4131440999917686],109609,001,2024-11-11_11h11.53.026,intentional binding,2024.1.5,None,2024-11-11 11h11.59.764038 +0530,
0.4,4000,unexp,2,11,35,1,230.47835429990664,,230.4661669000052,230.47835429990664,231.47871020017192,231.47871020017192,231.47871020017192,231.61414649989456,space,0.12907110014930367,None,231.61553699988872,232.02865406644221,232.34350189985707,232.32640969986096,232.32645250018686,232.34350189985707,232.34350189985707,232.34350189985707,234.96395849995315,986,1,[2.634711599908769],[2.6347252996638417],109609,001,2024-11-11_11h11.53.026,intentional binding,2024.1.5,None,2024-11-11 11h11.59.764038 +0530,
0.7,4000,unexp,3,0,36,2,234.9785111998208,,234.96542199980468,234.9785111998208,235.9789149002172,235.9789149002172,235.9789149002172,238.51517259981483,space,2.5295460000634193,None,238.516030699946,239.22840456670772,239.54026310006157,239.52887029992417,239.5288983997889,239.54026310006157,239.54026310006157,239.54026310006157,240.597531999927,0,1,[1.0658571999520063],[1.0658690999262035],109609,001,2024-11-11_11h11.53.026,intentional binding,2024.1.5,None,2024-11-11 11h11.59.764038 +0530,
0.1,1000,exp,3,1,37,6,240.61186370020732,,240.59882690012455,240.61186370020732,241.6125920000486,241.6125920000486,241.6125920000486,244.249277099967,space,2.6317465999163687,None,244.25003009987995,244.36211796669912,244.68302780017257,244.66709390003234,244.66713810013607,244.68302780017257,244.68302780017257,244.68302780017257,245.9644206999801,354,1,[1.2944257999770343],[1.2944450001232326],109609,001,2024-11-11_11h11.53.026,intentional binding,2024.1.5,None,2024-11-11 11h11.59.764038 +0530,
0.1,4000,unexp,3,2,38,0,245.97881990019232,,245.9661860000342,245.97881990019232,246.97878960007802,246.97878960007802,246.97878960007802,250.4318873998709,space,3.4448252003639936,None,250.4326740000397,250.54618996667367,250.86151270009577,250.84667730005458,250.84674650011584,250.86151270009577,250.86151270009577,250.86151270009577,252.0962796001695,24,1,[1.2474497999064624],[1.247460599988699],109609,001,2024-11-11_11h11.53.026,intentional binding,2024.1.5,None,2024-11-11 11h11.59.764038 +0530,
0.1,1000,exp,3,3,39,3,252.11210440006107,,252.09776809997857,252.11210440006107,253.0953448000364,253.0953448000364,253.1121628000401,255.29849239997566,space,2.196459300350398,None,255.29924590000883,255.41208876675617,255.72434889990836,255.71014619991183,255.71018740022555,255.72434889990836,255.72434889990836,255.72434889990836,256.7300800997764,876,1,[1.0177205996587873],[1.0177321997471154],109609,001,2024-11-11_11h11.53.026,intentional binding,2024.1.5,None,2024-11-11 11h11.59.764038 +0530,
0.4,1000,exp,3,4,40,7,256.74517200002447,,256.7309622000903,256.74517200002447,257.7454853998497,257.7454853998497,257.7454853998497,258.34734780015424,space,0.5855392999947071,None,258.34818700002506,258.7619803664895,259.0710338000208,259.0619395999238,259.06196410022676,259.0710338000208,259.0710338000208,259.0710338000208,262.4472378999926,335 ,1,[3.383890100289136],[3.38390180002898],109609,001,2024-11-11_11h11.53.026,intentional binding,2024.1.5,None,2024-11-11 11h11.59.764038 +0530,
0.7,1000,exp,3,5,41,5,262.46217590011656,,262.4478488001041,262.46217590011656,263.462277200073,263.462277200073,263.462277200073,263.88092210004106,space,0.4165899003855884,None,263.8816892998293,264.59594096668684,264.91309370007366,264.8972326000221,264.89730270020664,264.91309370007366,264.91309370007366,264.91309370007366,269.31407940015197,532,1,[4.41447430010885],[4.414489800110459],109609,001,2024-11-11_11h11.53.026,intentional binding,2024.1.5,None,2024-11-11 11h11.59.764038 +0530,
0.7,1000,exp,3,6,42,11,269.3290030998178,,269.3153877002187,269.3290030998178,270.3295648000203,270.3295648000203,270.3295648000203,270.63010200019926,space,0.29358489997684956,None,270.63056410010904,271.34609456645944,271.65991079993546,271.64680430013686,271.646846299991,271.65991079993546,271.65991079993546,271.65991079993546,274.3136048000306,24,1,[2.6649239999242127],[2.6649327999912202],109609,001,2024-11-11_11h11.53.026,intentional binding,2024.1.5,None,2024-11-11 11h11.59.764038 +0530,
0.4,1000,exp,3,7,43,4,274.3295781998895,,274.31544389994815,274.3295781998895,275.32963950000703,275.32963950000703,275.32963950000703,277.2301782001741,space,1.8847483000718057,None,277.2307188999839,277.64610046666735,277.96007869997993,277.9472364000976,277.9472912000492,277.96007869997993,277.96007869997993,277.96007869997993,280.76487499987707,11,1,[2.814501800108701],[2.814511700067669],109609,001,2024-11-11_11h11.53.026,intentional binding,2024.1.5,None,2024-11-11 11h11.59.764038 +0530,
0.4,1000,exp,3,8,44,10,280.779127900023,,280.76611620001495,280.779127900023,281.7798079000786,281.7798079000786,281.7798079000786,285.18172620004043,space,3.3897119001485407,None,285.1831046999432,285.5962075666214,285.9108772999607,285.8978252001107,285.8978697001003,285.9108772999607,285.9108772999607,285.9108772999607,287.3985775001347,34,1,[1.4987155999988317],[1.4987269998528063],109609,001,2024-11-11_11h11.53.026,intentional binding,2024.1.5,None,2024-11-11 11h11.59.764038 +0530,
0.1,1000,exp,3,9,45,9,287.4126173998229,,287.3992673000321,287.4126173998229,288.41302949981764,288.41302949981764,288.41302949981764,290.6156186000444,space,2.19935749983415,None,290.616367300041,290.7303020666043,291.04024939984083,291.0285748001188,291.02860489999875,291.04024939984083,291.04024939984083,291.04024939984083,292.14783360017464,98,1,[1.1174158002249897],[1.1174258003011346],109609,001,2024-11-11_11h11.53.026,intentional binding,2024.1.5,None,2024-11-11 11h11.59.764038 +0530,
0.4,4000,unexp,3,10,46,1,292.16331799980253,,292.1495698997751,292.16331799980253,293.16335760010406,293.16335760010406,293.16335760010406,295.15001410013065,space,1.9740250003524125,None,295.1507597002201,295.5635063667471,295.87569800019264,295.8586229002103,295.85867699980736,295.87569800019264,295.87569800019264,295.87569800019264,298.3811448002234,46,1,[2.520481899846345],[2.520504199899733],109609,001,2024-11-11_11h11.53.026,intentional binding,2024.1.5,None,2024-11-11 11h11.59.764038 +0530,
0.7,1000,exp,3,11,47,8,298.3963319999166,,298.3818517997861,298.3963319999166,299.39645290002227,299.39645290002227,299.39645290002227,302.2154318001121,space,2.805556599982083,None,302.2165051000193,302.9302172666105,303.24181480007246,303.22823850018904,303.2282989998348,303.24181480007246,303.24181480007246,303.24181480007246,305.0808617002331,567,1,[1.8499048999510705],[1.8499142997898161],109609,001,2024-11-11_11h11.53.026,intentional binding,2024.1.5,None,2024-11-11 11h11.59.764038 +0530,
0.1,1000,exp,4,0,48,9,305.0962685998529,,305.08182439999655,305.0962685998529,306.09670800017193,306.09670800017193,306.09670800017193,306.93246150016785,space,0.8275760002434254,None,306.9334243000485,307.0470549665081,307.3620678000152,307.3485146998428,307.348571700044,307.3620678000152,307.3620678000152,307.3620678000152,309.19882410019636,345,1,[1.8471305002458394],[1.8471385999582708],109609,001,2024-11-11_11h11.53.026,intentional binding,2024.1.5,None,2024-11-11 11h11.59.764038 +0530,
0.7,1000,exp,4,1,49,5,309.2139349002391,,309.19985669991,309.2139349002391,310.2132930997759,310.2132930997759,310.2132930997759,311.7822413002141,space,1.5550129003822803,None,311.7835054001771,312.49674336665,312.811816399917,312.7986616999842,312.798716600053,312.811816399917,312.811816399917,312.811816399917,315.41478420002386,678,1,[2.613823499996215],[2.613833600189537],109609,001,2024-11-11_11h11.53.026,intentional binding,2024.1.5,None,2024-11-11 11h11.59.764038 +0530,
0.4,1000,exp,4,2,50,4,315.4299232000485,,315.41549290018156,315.4299232000485,316.4305214001797,316.4305214001797,316.4305214001797,319.6326258000918,space,3.1983568998984993,None,319.6334135001525,320.04718476679795,320.36185939982533,320.34865429997444,320.3487133998424,320.36185939982533,320.36185939982533,320.36185939982533,323.48135330015793,097,1,[3.1303560002706945],[3.130367500241846],109609,001,2024-11-11_11h11.53.026,intentional binding,2024.1.5,None,2024-11-11 11h11.59.764038 +0530,
0.4,1000,exp,4,3,51,7,323.49663050007075,,323.48228019988164,323.49663050007075,324.4968917998485,324.4968917998485,324.4968917998485,325.5325489998795,space,1.0241728001274168,None,325.533833200112,325.94731886644536,326.2638853001408,326.2493111002259,326.2493564998731,326.2638853001408,326.2638853001408,326.2638853001408,329.41506010014564,321,1,[3.1635493002831936],[3.1635612002573907],109609,001,2024-11-11_11h11.53.026,intentional binding,2024.1.5,None,2024-11-11 11h11.59.764038 +0530,
0.1,1000,exp,4,4,52,3,329.4309441000223,,329.4156749001704,329.4309441000223,330.43062439979985,330.43062439979985,330.43062439979985,332.98269029986113,space,2.5486709997057915,None,332.98363000014797,333.09730586648607,333.41242290008813,333.3991077998653,333.39915559999645,333.41242290008813,333.41242290008813,333.41242290008813,335.13236800022423,563,1,[1.731230199802667],[1.731241799890995],109609,001,2024-11-11_11h11.53.026,intentional binding,2024.1.5,None,2024-11-11 11h11.59.764038 +0530,
0.7,1000,exp,4,5,53,11,335.14701570011675,,335.1330928998068,335.14701570011675,336.14740659995005,336.14740659995005,336.14740659995005,338.2494765999727,space,2.0937867001630366,None,338.250434699934,338.9640459665718,339.27625150000677,339.2605750001967,339.2606216999702,339.27625150000677,339.27625150000677,339.27625150000677,340.83224999997765,876,1,[1.5686174002476037],[1.5686276000924408],109609,001,2024-11-11_11h11.53.026,intentional binding,2024.1.5,None,2024-11-11 11h11.59.764038 +0530,
0.1,1000,exp,4,6,54,6,340.84711789991707,,340.8329198001884,340.84711789991707,341.8472148999572,341.8472148999572,341.8472148999572,347.1157936002128,space,5.264189700130373,None,347.11653140001,347.2308105668674,347.54428699985147,347.5303648998961,347.5304168998264,347.54428699985147,347.54428699985147,347.54428699985147,351.38268329994753,671,1,[3.8499320996925235],[3.8499431000091136],109609,001,2024-11-11_11h11.53.026,intentional binding,2024.1.5,None,2024-11-11 11h11.59.764038 +0530,
0.1,4000,unexp,4,7,55,0,351.3977895001881,,351.38363870000467,351.3977895001881,352.39746870007366,352.39746870007366,352.39746870007366,356.5333576002158,space,4.132297600153834,None,356.5341400001198,356.6477237665715,356.96301229996607,356.94987729983404,356.9499288001098,356.96301229996607,356.96301229996607,356.96301229996607,359.76575580006465,545,1,[2.813622099813074],[2.813631100114435],109609,001,2024-11-11_11h11.53.026,intentional binding,2024.1.5,None,2024-11-11 11h11.59.764038 +0530,
0.7,4000,unexp,4,8,56,2,359.7808918999508,,359.76728230016306,359.7808918999508,360.78150080004707,360.78150080004707,360.78150080004707,371.5837190002203,space,10.794313200283796,None,371.5845956001431,372.2984284666056,372.6160570997745,372.60126399993896,372.6013281000778,372.6160570997745,372.6160570997745,372.6160570997745,376.3332318002358,88 ,1,[3.728966699913144],[3.728974800091237],109609,001,2024-11-11_11h11.53.026,intentional binding,2024.1.5,None,2024-11-11 11h11.59.764038 +0530,
0.4,4000,unexp,4,9,57,1,376.3477523000911,,376.33393750013784,376.3477523000911,377.34821500023827,377.34821500023827,377.34821500023827,380.28387079993263,space,2.9246475999243557,None,380.28477270016447,380.69841606688374,381.0143356001936,381.0009623998776,381.0010174000636,381.0143356001936,381.0143356001936,381.0143356001936,383.38242440018803,112,1,[2.379202399868518],[2.3792124995961785],109609,001,2024-11-11_11h11.53.026,intentional binding,2024.1.5,None,2024-11-11 11h11.59.764038 +0530,
0.4,1000,exp,4,10,58,10,383.3987230001949,,383.38308859989047,383.3987230001949,384.38192910002545,384.38192910002545,384.39828070020303,386.50003159977496,space,2.1075380998663604,None,386.5009185001254,386.915116166758,387.224693399854,387.21084730001166,387.2108979001641,387.224693399854,387.224693399854,387.224693399854,388.49920260021463,65,1,[1.286147200036794],[1.2861537002027035],109609,001,2024-11-11_11h11.53.026,intentional binding,2024.1.5,None,2024-11-11 11h11.59.764038 +0530,
0.7,1000,exp,4,11,59,8,388.51499659987167,,388.4998813997954,388.51499659987167,389.4986633998342,389.4986633998342,389.51503650005907,391.93394589982927,space,2.421121099963784,None,391.9347625002265,392.6484897668163,392.9655944998376,392.95060280011967,392.9506470998749,392.9655944998376,392.9655944998376,392.9655944998376,394.1827747998759,96,1,[1.2299261996522546],[1.2299324995838106],109609,001,2024-11-11_11h11.53.026,intentional binding,2024.1.5,None,2024-11-11 11h11.59.764038 +0530,
0.7,4000,unexp,5,0,60,2,394.1982642998919,,394.18340450013056,394.1982642998919,395.199037599843,395.199037599843,395.199037599843,398.23367840005085,space,3.017934300005436,None,398.2351068002172,398.9484445667515,399.26376130012795,399.24557460006326,399.2456275001168,399.26376130012795,399.26376130012795,399.26376130012795,400.84974579978734,578,1,[1.601018600165844],[1.6010335003957152],109609,001,2024-11-11_11h11.53.026,intentional binding,2024.1.5,None,2024-11-11 11h11.59.764038 +0530,
0.1,4000,unexp,5,1,61,0,400.86533359996974,,400.85073539987206,400.86533359996974,401.86571090016514,401.86571090016514,401.86571090016514,405.0169203002006,space,3.1413739998824894,None,405.0177108999342,405.132439066718,405.4445222001523,405.43621469987556,405.43624009983614,405.4445222001523,405.4445222001523,405.4445222001523,406.8171740001999,735,1,[1.3796512000262737],[1.3796597998589277],109609,001,2024-11-11_11h11.53.026,intentional binding,2024.1.5,None,2024-11-11 11h11.59.764038 +0530,
0.7,1000,exp,5,2,62,11,406.83202619990334,,406.81785889994353,406.83202619990334,407.83243159996346,407.83243159996346,407.83243159996346,410.85085090016946,space,3.003784699831158,None,410.85176749993116,411.5653740666496,411.87577289994806,411.861979899928,411.86203269986436,411.87577289994806,411.87577289994806,411.87577289994806,413.4162817001343,758,1,[1.5517351999878883],[1.5517424000427127],109609,001,2024-11-11_11h11.53.026,intentional binding,2024.1.5,None,2024-11-11 11h11.59.764038 +0530,
0.1,1000,exp,5,3,63,9,413.4319764999673,,413.41699449997395,413.4319764999673,414.43267589993775,414.43267589993775,414.43267589993775,415.6499284999445,space,1.2137907999567688,None,415.6505156001076,415.76522666687765,416.07710130000487,416.0625638999045,416.06262250011787,416.07710130000487,416.07710130000487,416.07710130000487,417.96659500012174,264,1,[1.9020674000494182],[1.9020734000951052],109609,001,2024-11-11_11h11.53.026,intentional binding,2024.1.5,None,2024-11-11 11h11.59.764038 +0530,
0.1,1000,exp,5,4,64,3,417.98238159995526,,417.9671841999516,417.98238159995526,418.981991100125,418.981991100125,418.981991100125,422.4995987000875,space,3.502921599894762,None,422.50019290018827,422.61530416651317,422.92007290013134,422.9057145002298,422.9058146998286,422.92007290013134,422.92007290013134,422.92007290013134,426.0843469998799,860,1,[3.176448500249535],[3.1764559000730515],109609,001,2024-11-11_11h11.53.026,intentional binding,2024.1.5,None,2024-11-11 11h11.59.764038 +0530,
0.7,1000,exp,5,5,65,5,426.0988378999755,,426.0850068000145,426.0988378999755,427.099179700017,427.099179700017,427.099179700017,432.1845148000866,space,5.081935199908912,None,432.18527590017766,432.89963406656557,433.20423750020564,433.1919375997968,433.19198609981686,433.20423750020564,433.20423750020564,433.20423750020564,443.33401399990544,100 ,1,[10.140074000228196],[10.140085200313479],109609,001,2024-11-11_11h11.53.026,intentional binding,2024.1.5,None,2024-11-11 11h11.59.764038 +0530,
0.4,4000,unexp,5,6,66,1,443.34925629990175,,443.33472320018336,443.34925629990175,444.34988649981096,444.34988649981096,444.34988649981096,444.75142080010846,space,0.3889150000177324,None,444.7519871001132,445.1659727665285,445.47657909989357,445.46214050007984,445.4621875998564,445.47657909989357,445.47657909989357,445.47657909989357,447.61751110013574,753,1,[2.1533848997205496],[2.1533944997936487],109609,001,2024-11-11_11h11.53.026,intentional binding,2024.1.5,None,2024-11-11 11h11.59.764038 +0530,
0.1,1000,exp,5,7,67,6,447.6327873999253,,447.61924829985946,447.6327873999253,448.6328067998402,448.6328067998402,448.6328067998402,450.7517853998579,space,2.1114492998458445,None,450.75258430000395,450.8668534667852,451.17703210003674,451.16231290018186,451.16235540015623,451.17703210003674,451.17703210003674,451.17703210003674,456.2511789998971,444,1,[5.087121400050819],[5.08713010000065],109609,001,2024-11-11_11h11.53.026,intentional binding,2024.1.5,None,2024-11-11 11h11.59.764038 +0530,
0.4,1000,exp,5,8,68,7,456.2661492000334,,456.2525248997845,456.2661492000334,457.26654540002346,457.26654540002346,457.26654540002346,459.9682145998813,space,2.6844455003738403,None,459.96902919979766,460.38335456658774,460.6852735001594,460.6734325001016,460.6734706000425,460.6852735001594,460.6852735001594,460.6852735001594,462.8180688000284,786,1,[2.142877799924463],[2.1428860002197325],109609,001,2024-11-11_11h11.53.026,intentional binding,2024.1.5,None,2024-11-11 11h11.59.764038 +0530,
0.4,1000,exp,5,9,69,4,462.8331977999769,,462.8190617999062,462.8331977999769,463.8335152999498,463.8335152999498,463.8335152999498,466.0856646001339,space,2.241388800088316,None,466.08664909983054,466.5000716667312,466.80774419987574,466.793536900077,466.79359810007736,466.80774419987574,466.80774419987574,466.80774419987574,469.93447689991444,333,1,[3.138607000000775],[3.13861700007692],109609,001,2024-11-11_11h11.53.026,intentional binding,2024.1.5,None,2024-11-11 11h11.59.764038 +0530,
0.4,1000,exp,5,10,70,10,469.94984580017626,,469.9359353999607,469.94984580017626,470.9504245999269,470.9504245999269,470.9504245999269,477.0866248998791,space,6.130808399990201,None,477.0881024999544,477.5002915668922,477.8077861000784,477.7934519997798,477.7935116002336,477.8077861000784,477.8077861000784,477.8077861000784,479.71828830009326,88,1,[1.9222203996032476],[1.9222300997935236],109609,001,2024-11-11_11h11.53.026,intentional binding,2024.1.5,None,2024-11-11 11h11.59.764038 +0530,
0.7,1000,exp,5,11,71,8,479.73342629987746,,479.71984300017357,479.73342629987746,480.7335934001021,480.7335934001021,480.7335934001021,482.5517366998829,space,1.8019697000272572,None,482.5524822999723,483.26686846657344,483.57533540017903,483.5635456000455,483.56357319978997,483.57533540017903,483.57533540017903,483.57533540017903,486.4523709998466,795,1,[2.88704749988392],[2.8870568997226655],109609,001,2024-11-11_11h11.53.026,intentional binding,2024.1.5,None,2024-11-11 11h11.59.764038 +0530,
0.4,1000,exp,6,0,72,10,486.46668600011617,,486.4531678999774,486.46668600011617,487.4674768000841,487.4674768000841,487.4674768000841,489.2192978998646,space,1.7462003999389708,None,489.2200903999619,489.6336975666384,489.9474642998539,489.9340212000534,489.9340701000765,489.9474642998539,489.9474642998539,489.9474642998539,491.5853634001687,545,1,[1.6491982997395098],[1.64920759992674],109609,001,2024-11-11_11h11.53.026,intentional binding,2024.1.5,None,2024-11-11 11h11.59.764038 +0530,
0.1,4000,unexp,6,1,73,0,491.60039500007406,,491.5860545998439,491.60039500007406,492.60087240021676,492.60087240021676,492.60087240021676,495.6024231999181,space,2.9850860997103155,None,495.6032165000215,495.71741396660605,496.02770189987496,496.0142390001565,496.0142784002237,496.02770189987496,496.02770189987496,496.02770189987496,497.9690727000125,900 ,1,[1.9526994000189006],[1.952705499716103],109609,001,2024-11-11_11h11.53.026,intentional binding,2024.1.5,None,2024-11-11 11h11.59.764038 +0530,
0.7,1000,exp,6,2,74,11,497.9837373001501,,497.9697511000559,497.9837373001501,498.9839921002276,498.9839921002276,498.9839921002276,501.15221480000764,space,2.1519566997885704,None,501.15310120023787,501.86756866664314,502.1794199999422,502.1645141001791,502.16458170022815,502.1794199999422,502.1794199999422,502.1794199999422,504.50249679991975,566,1,[2.3352220002561808],[2.3352303002029657],109609,001,2024-11-11_11h11.53.026,intentional binding,2024.1.5,None,2024-11-11 11h11.59.764038 +0530,
0.7,4000,unexp,6,3,75,2,504.51767619978637,,504.5039304001257,504.51767619978637,505.51773100020364,505.51773100020364,505.51773100020364,506.9028401998803,space,1.3700656001456082,None,506.9038935001008,507.6176245664867,507.92787350015715,507.91472799982876,507.91478220000863,507.92787350015715,507.92787350015715,507.92787350015715,511.51956319995224,344 ,1,[3.6014144998043776],[3.6014224998652935],109609,001,2024-11-11_11h11.53.026,intentional binding,2024.1.5,None,2024-11-11 11h11.59.764038 +0530,
0.1,1000,exp,6,4,76,3,511.5348712000996,,511.5206105001271,511.5348712000996,512.5342632997781,512.5342632997781,512.5342632997781,515.2032555998303,space,2.6583867999725044,None,515.2041579000652,515.3179472666855,515.628595800139,515.6150362999178,515.6150932000019,515.628595800139,515.628595800139,515.628595800139,516.219340799842,,1,[0.6017117998562753],[0.601721600163728],109609,001,2024-11-11_11h11.53.026,intentional binding,2024.1.5,None,2024-11-11 11h11.59.764038 +0530,
0.4,4000,unexp,6,5,77,1,516.2342465999536,,516.2199829998426,516.2342465999536,517.2346840999089,517.2346840999089,517.2346840999089,517.7698635999113,space,0.520753899589181,None,517.7709960998036,518.1842350667032,518.4988525002263,518.4849955001846,518.4850731999613,518.4988525002263,518.4988525002263,518.4988525002263,520.0184351000935,788,1,[1.5306560001336038],[1.5306643000803888],109609,001,2024-11-11_11h11.53.026,intentional binding,2024.1.5,None,2024-11-11 11h11.59.764038 +0530,
0.7,1000,exp,6,6,78,5,520.0341298999265,,520.0191786000505,520.0341298999265,521.0347365001217,521.0347365001217,521.0347365001217,522.020467299968,space,0.9782483000308275,None,522.0214736000635,522.7344378666642,523.048966200091,523.0347591000609,523.0347951999865,523.048966200091,523.048966200091,523.048966200091,526.2693770998158,533 ,1,[3.2327574002556503],[3.2327662999741733],109609,001,2024-11-11_11h11.53.026,intentional binding,2024.1.5,None,2024-11-11 11h11.59.764038 +0530,
0.1,1000,exp,6,7,79,6,526.2843769001774,,526.2700604000129,526.2843769001774,527.284662600141,527.284662600141,527.284662600141,528.1699255001731,space,0.8736928999423981,None,528.1708590998314,528.2847595667156,528.599162099883,528.5851973001845,528.5852504000068,528.599162099883,528.599162099883,528.599162099883,531.2861937000416,892,1,[2.698782999999821],[2.6987955002114177],109609,001,2024-11-11_11h11.53.026,intentional binding,2024.1.5,None,2024-11-11 11h11.59.764038 +0530,
0.4,1000,exp,6,8,80,4,531.300886400044,,531.2883244999684,531.300886400044,532.301338000223,532.301338000223,532.301338000223,533.3542176000774,space,1.0418984997086227,None,533.3553113001399,533.76794966689,534.0795713998377,534.0654744999483,534.0655303001404,534.0795713998377,534.0795713998377,534.0795713998377,535.8360816999339,654,1,[1.767703799996525],[1.7677150000818074],109609,001,2024-11-11_11h11.53.026,intentional binding,2024.1.5,None,2024-11-11 11h11.59.764038 +0530,
0.1,1000,exp,6,9,81,9,535.8514628000557,,535.838021799922,535.8514628000557,536.8515802999027,536.8515802999027,536.8515802999027,557.3867207001895,space,20.52663500001654,None,557.3875164999627,557.5018706666926,557.8098323000595,557.7961419001222,557.7962058000267,557.8098323000595,557.8098323000595,557.8098323000595,561.3702127998695,55,1,[3.5718667996115983],[3.571874499786645],109609,001,2024-11-11_11h11.53.026,intentional binding,2024.1.5,None,2024-11-11 11h11.59.764038 +0530,
0.4,1000,exp,6,10,82,7,561.3852610997856,,561.370940099936,561.3852610997856,562.3857392999344,562.3857392999344,562.3857392999344,568.0865043997765,space,5.698237900156528,None,568.0871651000343,568.5023756665798,568.8107308000326,568.7964776000008,568.796538699884,568.8107308000326,568.8107308000326,568.8107308000326,571.2699068998918,930,1,[2.4710921002551913],[2.471100499853492],109609,001,2024-11-11_11h11.53.026,intentional binding,2024.1.5,None,2024-11-11 11h11.59.764038 +0530,
0.7,1000,exp,6,11,83,8,571.2858930998482,,571.2706532999873,571.2858930998482,572.2858589999378,572.2858589999378,572.2858589999378,574.0545060997829,space,1.7661076998338103,None,574.0553275998682,574.7689045668269,575.0820251000114,575.0670167999342,575.0670909998007,575.0820251000114,575.0820251000114,575.0820251000114,577.9878877000883,233,1,[2.9177831998094916],[2.9177938997745514],109609,001,2024-11-11_11h11.53.026,intentional binding,2024.1.5,None,2024-11-11 11h11.59.764038 +0530,
0.7,1000,exp,7,0,84,5,578.0025172000751,,577.9886135999113,578.0025172000751,579.0021337000653,579.0021337000653,579.0021337000653,582.3039811998606,space,3.2974715000018477,None,582.3047762000933,583.0189700667436,583.3313509998843,583.31743119983,583.3175030997954,583.3313509998843,583.3313509998843,583.3313509998843,585.9880134998821,428,1,[2.667908600065857],[2.6679185000248253],109609,001,2024-11-11_11h11.53.026,intentional binding,2024.1.5,None,2024-11-11 11h11.59.764038 +0530,
0.7,1000,exp,7,1,85,11,586.0023261997849,,585.9887501001358,586.0023261997849,587.0026132999919,587.0026132999919,587.0026132999919,588.2378325997852,space,1.2226582001894712,None,588.2387839998119,588.9526979667755,589.2621359000914,589.2474639997818,589.2475123000331,589.2621359000914,589.2621359000914,589.2621359000914,591.0878285998479,222,1,[1.8372794999741018],[1.837287399917841],109609,001,2024-11-11_11h11.53.026,intentional binding,2024.1.5,None,2024-11-11 11h11.59.764038 +0530,
0.7,1000,exp,7,2,86,8,591.1027457001619,,591.0889353998937,591.1027457001619,592.10294110002,592.10294110002,592.10294110002,593.7881411002018,space,1.682059200014919,None,593.7889136997983,594.5028651664654,594.811527099926,594.7977001001127,594.7977940998971,594.811527099926,594.811527099926,594.811527099926,596.1875048000365,444,1,[1.3872893997468054],[1.387298499699682],109609,001,2024-11-11_11h11.53.026,intentional binding,2024.1.5,None,2024-11-11 11h11.59.764038 +0530,
0.1,4000,unexp,7,3,87,0,596.2026693997905,,596.1882234001532,596.2026693997905,597.2030564001761,597.2030564001761,597.2030564001761,604.0054882001132,space,6.798351199831814,None,604.006528200116,604.1196406665879,604.4321972997859,604.4178042002022,604.4178658002056,604.4321972997859,604.4321972997859,604.4321972997859,608.6711769998074,865,1,[4.250891599804163],[4.250902900006622],109609,001,2024-11-11_11h11.53.026,intentional binding,2024.1.5,None,2024-11-11 11h11.59.764038 +0530,
0.1,1000,exp,7,4,88,9,608.6861093002371,,608.6718036001548,608.6861093002371,609.6859710998833,609.6859710998833,609.6859710998833,610.5375966997817,space,0.8434519995935261,None,610.538183500059,610.6532573667976,610.9616077998653,610.9481529998593,610.948226199951,610.9616077998653,610.9616077998653,610.9616077998653,613.3719481001608,989,1,[2.42052310006693],[2.42053380003199],109609,001,2024-11-11_11h11.53.026,intentional binding,2024.1.5,None,2024-11-11 11h11.59.764038 +0530,
0.4,1000,exp,7,5,89,7,613.3871487998404,,613.3730687000789,613.3871487998404,614.3866714001633,614.3866714001633,614.3866714001633,616.6070909001864,space,2.2177844997495413,None,616.6081276000477,617.0198367667074,617.3334030997939,617.3195961997844,617.3196418001316,617.3334030997939,617.3334030997939,617.3334030997939,618.6046437998302,989,1,[1.2829579999670386],[1.2829705998301506],109609,001,2024-11-11_11h11.53.026,intentional binding,2024.1.5,None,2024-11-11 11h11.59.764038 +0530,
0.4,4000,unexp,7,6,90,1,618.6196699999273,,618.6054056999274,618.6196699999273,619.6198436999694,619.6198436999694,619.6198436999694,620.3889800999314,space,0.7607316002249718,None,620.3898978000507,620.8032120667087,621.1122520999052,621.0981740001589,621.0982220000587,621.1122520999052,621.1122520999052,621.1122520999052,622.5044185002334,987,1,[1.4039882998913527],[1.4039968000724912],109609,001,2024-11-11_11h11.53.026,intentional binding,2024.1.5,None,2024-11-11 11h11.59.764038 +0530,
0.4,1000,exp,7,7,91,4,622.5196811999194,,622.5052098999731,622.5196811999194,623.5203702999279,623.5203702999279,623.5203702999279,627.0883276998065,space,3.5537624997086823,None,627.0891975001432,627.5034076665218,627.81266340008,627.798542900011,627.7985959001817,627.81266340008,627.81266340008,627.81266340008,629.3882848001085,996,1,[1.5874859001487494],[1.587494700215757],109609,001,2024-11-11_11h11.53.026,intentional binding,2024.1.5,None,2024-11-11 11h11.59.764038 +0530,
0.7,4000,unexp,7,8,92,2,629.4030927000567,,629.389061300084,629.4030927000567,630.4037345000543,630.4037345000543,630.4037345000543,632.9894027002156,space,2.576245400123298,None,632.9903535000049,633.7032086668225,634.0057435999624,633.993171100039,633.9932168000378,634.0057435999624,634.0057435999624,634.0057435999624,636.7215300002135,854,1,[2.7266028998419642],[2.726611199788749],109609,001,2024-11-11_11h11.53.026,intentional binding,2024.1.5,None,2024-11-11 11h11.59.764038 +0530,
0.1,1000,exp,7,9,93,3,636.7365930997767,,636.7221782999113,636.7365930997767,637.736641000025,637.736641000025,637.736641000025,639.455663099885,space,1.7147439001128078,None,639.4568047998473,639.5701811668152,639.8821396999992,639.869624900166,639.8696832000278,639.8821396999992,639.8821396999992,639.8821396999992,641.304338300135,678,1,[1.432557700201869],[1.4325649999082088],109609,001,2024-11-11_11h11.53.026,intentional binding,2024.1.5,None,2024-11-11 11h11.59.764038 +0530,
0.4,1000,exp,7,10,94,10,641.3207797999494,,641.3051672000438,641.3207797999494,642.3204438001849,642.3204438001849,642.3204438001849,643.021558499895,space,0.688070600386709,None,643.0223411000334,643.4370364668468,643.7384579000063,643.7288644001819,643.7288993000984,643.7384579000063,643.7384579000063,643.7384579000063,646.9883770998567,679,1,[3.257807900197804],[3.2578167002648115],109609,001,2024-11-11_11h11.53.026,intentional binding,2024.1.5,None,2024-11-11 11h11.59.764038 +0530,
0.1,1000,exp,7,11,95,6,647.0037369001657,,646.9892445998266,647.0037369001657,648.0038311001845,648.0038311001845,648.0038311001845,648.7570147002116,space,0.7506883996538818,None,648.7582196001895,648.8703428665797,649.1731320000254,649.1644327999093,649.1644586999901,649.1731320000254,649.1731320000254,649.1731320000254,651.1228549000807,543,1,[1.9569061999209225],[1.956917999777943],109609,001,2024-11-11_11h11.53.026,intentional binding,2024.1.5,None,2024-11-11 11h11.59.764038 +0530,
0.7,1000,exp,8,0,96,8,651.1369769000448,,651.1237825998105,651.1369769000448,652.1376490998082,652.1376490998082,652.1376490998082,654.5893183001317,space,2.4421123997308314,None,654.5903067002073,655.3040784667867,655.61257690005,655.5991783002391,655.599231199827,655.61257690005,655.61257690005,655.61257690005,659.3885081000626,69,1,[3.7871163999661803],[3.787123200017959],109609,001,2024-11-11_11h11.53.026,intentional binding,2024.1.5,None,2024-11-11 11h11.59.764038 +0530,
0.1,1000,exp,8,1,97,6,659.4041845002212,,659.3891472998075,659.4041845002212,660.4039890998974,660.4039890998974,660.4039890998974,661.607582999859,space,1.200229899957776,None,661.6086503001861,661.7204107666078,662.0271653998643,662.0143534000963,662.0143984998576,662.0271653998643,662.0271653998643,662.0271653998643,665.0048572001979,609,1,[2.9885883000679314],[2.9885947997681797],109609,001,2024-11-11_11h11.53.026,intentional binding,2024.1.5,None,2024-11-11 11h11.59.764038 +0530,
0.1,1000,exp,8,2,98,9,665.0211808998138,,665.005554900039,665.0211808998138,666.0043298997916,666.0043298997916,666.0211785999127,667.3902660999447,space,1.3756191995926201,None,667.39121170016,667.504228766604,667.8138751001097,667.7997658001259,667.7998323999345,667.8138751001097,667.8138751001097,667.8138751001097,672.7217561001889,654,1,[4.919747699983418],[4.9197542001493275],109609,001,2024-11-11_11h11.53.026,intentional binding,2024.1.5,None,2024-11-11 11h11.59.764038 +0530,
0.4,1000,exp,8,3,99,7,672.7373979999684,,672.7223943001591,672.7373979999684,673.7379898000509,673.7379898000509,673.7379898000509,674.8901447001845,space,1.149164100177586,None,674.8908914001659,675.304365166525,675.6144674001262,675.6003584000282,675.6004348001443,675.6144674001262,675.6144674001262,675.6144674001262,678.3900985000655,326,1,[2.786239800043404],[2.786250200122595],109609,001,2024-11-11_11h11.53.026,intentional binding,2024.1.5,None,2024-11-11 11h11.59.764038 +0530,
0.1,4000,unexp,8,4,100,0,678.4042762001045,,678.3911927998997,678.4042762001045,679.4046732001007,679.4046732001007,679.4046732001007,681.8573309001513,space,2.446164700202644,None,681.8587957997806,681.9712974667239,682.2773195998743,682.2630742997862,682.2631172998808,682.2773195998743,682.2773195998743,682.2773195998743,685.0567156001925,32,1,[2.7905283998697996],[2.7905378001742065],109609,001,2024-11-11_11h11.53.026,intentional binding,2024.1.5,None,2024-11-11 11h11.59.764038 +0530,
0.7,1000,exp,8,5,101,5,685.0718613998033,,685.0581335001625,685.0718613998033,686.0719127999619,686.0719127999619,686.0719127999619,686.523492900189,space,0.44516330026090145,None,686.5244561000727,687.2381780665057,687.5558396000415,687.5410405998118,687.5411070999689,687.5558396000415,687.5558396000415,687.5558396000415,689.7558087999932,247,1,[2.212011200375855],[2.2120196004398167],109609,001,2024-11-11_11h11.53.026,intentional binding,2024.1.5,None,2024-11-11 11h11.59.764038 +0530,
0.7,1000,exp,8,6,102,11,689.7709615998901,,689.7564357998781,689.7709615998901,690.7711899001151,690.7711899001151,690.7711899001151,693.373768299818,space,2.5915276003070176,None,693.37499079993,694.0880904668632,694.3982791998424,694.384400700219,694.3844638001174,694.3982791998424,694.3982791998424,694.3982791998424,695.9225620999932,865,1,[1.5357800996862352],[1.5357931000180542],109609,001,2024-11-11_11h11.53.026,intentional binding,2024.1.5,None,2024-11-11 11h11.59.764038 +0530,
0.4,1000,exp,8,7,103,4,695.9384352001362,,695.9231993998401,695.9384352001362,696.9383677002043,696.9383677002043,696.9383677002043,698.724698100239,space,1.770919700153172,None,698.725528200157,699.1384638664933,699.4544831998646,699.4412934998982,699.4413441000506,699.4544831998646,699.4544831998646,699.4544831998646,702.9557587001473,273,1,[3.5123195997439325],[3.512326499912888],109609,001,2024-11-11_11h11.53.026,intentional binding,2024.1.5,None,2024-11-11 11h11.59.764038 +0530,
0.1,1000,exp,8,8,104,3,702.9717350997962,,702.956433699932,702.9717350997962,703.9721324001439,703.9721324001439,703.9721324001439,706.9574465998448,space,2.9813006999902427,None,706.9585011000745,707.0718049668396,707.3870447999798,707.3718471000902,707.3718885998242,707.3870447999798,707.3870447999798,707.3870447999798,709.25766750006,121,1,[1.8836453002877533],[1.883665700443089],109609,001,2024-11-11_11h11.53.026,intentional binding,2024.1.5,None,2024-11-11 11h11.59.764038 +0530,
0.4,4000,unexp,8,9,105,1,709.2717133001424,,709.2583424001932,709.2717133001424,710.2717113997787,710.2717113997787,710.2717113997787,711.957996299956,space,1.6750660999678075,None,711.9592113997787,712.3719016668076,712.6843726998195,712.6715183001943,712.6715656998567,712.6843726998195,712.6843726998195,712.6843726998195,714.5074840001762,602,1,[1.8339920002035797],[1.83400209993124],109609,001,2024-11-11_11h11.53.026,intentional binding,2024.1.5,None,2024-11-11 11h11.59.764038 +0530,
0.4,1000,exp,8,10,106,10,714.5224582999945,,714.5085718999617,714.5224582999945,715.522407299839,715.522407299839,715.522407299839,716.907212600112,space,1.37877510022372,None,716.9081553001888,717.3218123666632,717.6336039998569,717.6216095997952,717.6216592001729,717.6336039998569,717.6336039998569,717.6336039998569,721.8906735000201,300,1,[4.26659999974072],[4.266611400060356],109609,001,2024-11-11_11h11.53.026,intentional binding,2024.1.5,None,2024-11-11 11h11.59.764038 +0530,
0.7,4000,unexp,8,11,107,2,721.9050280000083,,721.8916635001078,721.9050280000083,722.905139000155,722.905139000155,722.905139000155,724.7083939998411,space,1.7989986003376544,None,724.7093853000551,725.4224309665772,725.7398294000886,725.722403800115,725.7224713000469,725.7398294000886,725.7398294000886,725.7398294000886,727.6408414999023,372,1,[1.9158362997695804],[1.9158446001820266],109609,001,2024-11-11_11h11.53.026,intentional binding,2024.1.5,None,2024-11-11 11h11.59.764038 +0530,
0.7,1000,exp,9,0,108,8,727.6555214999244,,727.6415019999258,727.6555214999244,728.6553897000849,728.6553897000849,728.6553897000849,730.0911427000538,space,1.4328696997836232,None,730.0919582000934,730.8056704668018,731.1141666998155,731.1014890000224,731.1015289998613,731.1141666998155,731.1141666998155,731.1141666998155,734.3745225002058,753,1,[3.2702282001264393],[3.2702418002299964],109609,001,2024-11-11_11h11.53.026,intentional binding,2024.1.5,None,2024-11-11 11h11.59.764038 +0530,
0.1,1000,exp,9,1,109,6,734.3897254001349,,734.375675200019,734.3897254001349,735.3891863999888,735.3891863999888,735.3891863999888,737.7080477001145,space,2.31492150016129,None,737.7090421998873,737.8220287664483,738.1228074999526,738.1081984001212,738.1082550999708,738.1228074999526,738.1228074999526,738.1228074999526,740.5401340997778,246,1,[2.429549700114876],[2.429557600058615],109609,001,2024-11-11_11h11.53.026,intentional binding,2024.1.5,None,2024-11-11 11h11.59.764038 +0530,
0.1,1000,exp,9,2,110,3,740.5555716999806,,740.5408805999905,740.5555716999806,741.5554563999176,741.5554563999176,741.5554563999176,744.1579893999733,space,2.5979301002807915,None,744.1587912999094,744.2724055667097,744.5851361998357,744.5721885999665,744.5722432001494,744.5851361998357,744.5851361998357,744.5851361998357,746.7411434999667,764,1,[2.1663746000267565],[2.1663863002322614],109609,001,2024-11-11_11h11.53.026,intentional binding,2024.1.5,None,2024-11-11 11h11.59.764038 +0530,
0.4,1000,exp,9,3,111,7,746.7560966000892,,746.742795899976,746.7560966000892,747.7557506999001,747.7557506999001,747.7557506999001,748.6915127998218,space,0.9257505000568926,None,748.6925766002387,749.1061311667474,749.4170690998435,749.4024475999177,749.4024991001934,749.4170690998435,749.4170690998435,749.4170690998435,752.1565637001768,482,1,[2.750848799943924],[2.7508555999957025],109609,001,2024-11-11_11h11.53.026,intentional binding,2024.1.5,None,2024-11-11 11h11.59.764038 +0530,
0.7,4000,unexp,9,4,112,2,752.1724378000945,,752.1571518001147,752.1724378000945,753.1558615998365,753.1558615998365,753.1726428000256,756.5082915998064,space,3.34146700007841,None,756.5090308999643,757.2225546665179,757.537200700026,757.5235546999611,757.5236182999797,757.537200700026,757.537200700026,757.537200700026,758.9255709000863,766,1,[1.3983846995979548],[1.3984004999510944],109609,001,2024-11-11_11h11.53.026,intentional binding,2024.1.5,None,2024-11-11 11h11.59.764038 +0530,
0.4,1000,exp,9,5,113,10,758.9394499999471,,758.9269117000513,758.9394499999471,759.939898500219,759.939898500219,759.939898500219,760.9912176998332,space,1.043492800090462,None,760.9921836000867,761.4063035664769,761.7159669999965,761.7025850000791,761.7026450000703,761.7159669999965,761.7159669999965,761.7159669999965,764.3573087002151,293 ,1,[2.6523870998062193],[2.6523957001045346],109609,001,2024-11-11_11h11.53.026,intentional binding,2024.1.5,None,2024-11-11 11h11.59.764038 +0530,
0.4,1000,exp,9,6,114,4,764.3726408001967,,764.3589409999549,764.3726408001967,765.3731109998189,765.3731109998189,765.3731109998189,766.3584854998626,space,0.9780056998133659,None,766.3594684000127,766.7729265667188,767.0877215000801,767.0732955001295,767.073359400034,767.0877215000801,767.0877215000801,767.0877215000801,770.2239048997872,297,1,[3.147856399882585],[3.147863999940455],109609,001,2024-11-11_11h11.53.026,intentional binding,2024.1.5,None,2024-11-11 11h11.59.764038 +0530,
0.1,4000,unexp,9,7,115,0,770.2402818999253,,770.2246118998155,770.2402818999253,771.2398028001189,771.2398028001189,771.2398028001189,775.7578489999287,space,4.5050777001306415,None,775.7585967001505,775.8732806668306,776.1861419999041,776.1742293001153,776.1742695001885,776.1861419999041,776.1861419999041,776.1861419999041,781.1575683001429,283,1,[4.9813878000713885],[4.981394200120121],109609,001,2024-11-11_11h11.53.026,intentional binding,2024.1.5,None,2024-11-11 11h11.59.764038 +0530,
0.1,1000,exp,9,8,116,9,781.1732474998571,,781.1582176000811,781.1732474998571,782.1735181999393,782.1735181999393,782.1735181999393,783.0079041002318,space,0.8229558998718858,None,783.0088833998889,783.1232599667894,783.4354122998193,783.4234734000638,783.4235224998556,783.4354122998193,783.4354122998193,783.4354122998193,785.8581930999644,111,1,[2.432665000203997],[2.4326754002831876],109609,001,2024-11-11_11h11.53.026,intentional binding,2024.1.5,None,2024-11-11 11h11.59.764038 +0530,
0.7,1000,exp,9,9,117,5,785.8732135999016,,785.858874599915,785.8732135999016,786.8736434001476,786.8736434001476,786.8736434001476,788.959529499989,space,2.0776595999486744,None,788.9607321000658,789.6737988666321,789.9872181001119,789.9740631999448,789.974120200146,789.9872181001119,789.9872181001119,789.9872181001119,792.3745670001954,920,1,[2.398045999929309],[2.398053599987179],109609,001,2024-11-11_11h11.53.026,intentional binding,2024.1.5,None,2024-11-11 11h11.59.764038 +0530,
0.7,1000,exp,9,10,118,11,792.3904185998254,,792.3752231998369,792.3904185998254,793.3904264001176,793.3904264001176,793.3904264001176,795.4091527001001,space,2.0102091003209352,None,795.410031999927,796.1233103667075,796.4289843002334,796.4151897998527,796.4152338001877,796.4289843002334,796.4289843002334,796.4289843002334,804.0079549998045, 28,1,[7.590803800150752],[7.590811399742961],109609,001,2024-11-11_11h11.53.026,intentional binding,2024.1.5,None,2024-11-11 11h11.59.764038 +0530,
0.4,4000,unexp,9,11,119,1,804.0238499999978,,804.0086870999075,804.0238499999978,805.0239419001155,805.0239419001155,805.0239419001155,807.376232100185,space,2.3472384000197053,None,807.3775121001527,807.7905465667757,808.0982782999054,808.0850117001683,808.0850680000149,808.0982782999054,808.0982782999054,808.0982782999054,809.4253020999022,37,1,[1.338293599896133],[1.3383045997470617],109609,001,2024-11-11_11h11.53.026,intentional binding,2024.1.5,None,2024-11-11 11h11.59.764038 +0530,
0.1,1000,exp,10,0,120,3,809.4402155000716,,809.4259077999741,809.4402155000716,810.4405078999698,810.4405078999698,810.4405078999698,812.4752886998467,space,2.029072599951178,None,812.4759101998061,812.5907181664991,812.8989138999023,812.8845107001252,812.8845588001423,812.8989138999023,812.8989138999023,812.8989138999023,815.3762392001227,875,1,[2.4890967002138495],[2.4891069000586867],109609,001,2024-11-11_11h11.53.026,intentional binding,2024.1.5,None,2024-11-11 11h11.59.764038 +0530,
0.7,1000,exp,10,1,121,11,815.3904984998517,,815.3770122001879,815.3904984998517,816.3907925002277,816.3907925002277,816.3907925002277,820.1431489000097,space,3.738010599743575,None,820.1441748999059,820.8576282668548,821.1695270999335,821.1550936000422,821.1551617002115,821.1695270999335,821.1695270999335,821.1695270999335,822.6425421000458,40 ,1,[1.4840001999400556],[1.484008400235325],109609,001,2024-11-11_11h11.53.026,intentional binding,2024.1.5,None,2024-11-11 11h11.59.764038 +0530,
0.1,1000,exp,10,2,122,6,822.6575763002038,,822.6435140999965,822.6575763002038,823.6574703999795,823.6574703999795,823.6574703999795,824.8257618001662,space,1.1512752999551594,None,824.826516199857,824.9408757668609,825.2497324999422,825.2348485998809,825.2349090999924,825.2497324999422,825.2497324999422,825.2497324999422,828.8424415998161,557,1,[3.6052130004391074],[3.6052229003980756],109609,001,2024-11-11_11h11.53.026,intentional binding,2024.1.5,None,2024-11-11 11h11.59.764038 +0530,
0.4,4000,unexp,10,3,123,1,828.8576747998595,,828.8437234000303,828.8576747998595,829.8574958997779,829.8574958997779,829.8574958997779,833.3596723000519,space,3.48837579973042,None,833.3606318999082,833.7743044668498,834.089573699981,834.075220100116,834.0752775999717,834.089573699981,834.089573699981,834.089573699981,838.1766832000576,443,1,[4.099206999875605],[4.09921529982239],109609,001,2024-11-11_11h11.53.026,intentional binding,2024.1.5,None,2024-11-11 11h11.59.764038 +0530,
0.7,4000,unexp,10,4,124,2,838.1910661999136,,838.1774229002185,838.1910661999136,839.1912857000716,839.1912857000716,839.1912857000716,844.6272022998892,space,5.423319799825549,None,844.6284373002127,845.3414595667894,845.6530359000899,845.6428514998406,845.6428879001178,845.6530359000899,845.6530359000899,845.6530359000899,848.4102276000194,22,1,[2.765679500065744],[2.7656872998923063],109609,001,2024-11-11_11h11.53.026,intentional binding,2024.1.5,None,2024-11-11 11h11.59.764038 +0530,
0.7,1000,exp,10,5,125,5,848.4252594998106,,848.4112665997818,848.4252594998106,849.4248354998417,849.4248354998417,849.4248354998417,854.4608625001274,space,5.026940300129354,None,854.462006600108,855.1749811666707,855.4897893997841,855.4763027001172,855.476370099932,855.4897893997841,855.4897893997841,855.4897893997841,860.1930069997907,599,1,[4.714123500045389],[4.7141323001123965],109609,001,2024-11-11_11h11.53.026,intentional binding,2024.1.5,None,2024-11-11 11h11.59.764038 +0530,
0.4,1000,exp,10,6,126,7,860.2085695997812,,860.1949672000483,860.2085695997812,861.208457800094,861.208457800094,861.208457800094,865.3283603000455,space,4.115267499815673,None,865.329687600024,865.7420027666415,866.0501406001858,866.0363679002039,866.0364260999486,866.0501406001858,866.0501406001858,866.0501406001858,868.8112703999504,203,1,[2.771943900268525],[2.771954100113362],109609,001,2024-11-11_11h11.53.026,intentional binding,2024.1.5,None,2024-11-11 11h11.59.764038 +0530,
0.4,1000,exp,10,7,127,10,868.8254026998766,,868.812236700207,868.8254026998766,869.8249331000261,869.8249331000261,869.8249331000261,874.4279849999584,space,4.599207700230181,None,874.4291480998509,874.8416830665121,875.150606600102,875.1365736001171,875.1366302999668,875.150606600102,875.150606600102,875.150606600102,877.093374799937,210,1,[1.9543045000173151],[1.9543135999701917],109609,001,2024-11-11_11h11.53.026,intentional binding,2024.1.5,None,2024-11-11 11h11.59.764038 +0530,
0.1,1000,exp,10,8,128,9,877.1083594998345,,877.0942510999739,877.1083594998345,878.1090987999924,878.1090987999924,878.1090987999924,880.8107707998715,space,2.6924326000735164,None,880.8117773998529,880.9256502665269,881.2388627999462,881.2269962001592,881.2270521000028,881.2388627999462,881.2388627999462,881.2388627999462,883.226637000218,547,1,[1.9976825001649559],[1.9976900001056492],109609,001,2024-11-11_11h11.53.026,intentional binding,2024.1.5,None,2024-11-11 11h11.59.764038 +0530,
0.4,1000,exp,10,9,129,4,883.2419292000122,,883.2273597000167,883.2419292000122,884.2421768000349,884.2421768000349,884.2421768000349,886.5771846999414,space,2.3313179998658597,None,886.577884499915,886.9925628668318,887.3003429998644,887.2863897001371,887.2864288999699,887.3003429998644,887.3003429998644,887.3003429998644,891.143939500209,237,1,[3.8556455997750163],[3.855654699727893],109609,001,2024-11-11_11h11.53.026,intentional binding,2024.1.5,None,2024-11-11 11h11.59.764038 +0530,
0.1,4000,unexp,10,10,130,0,891.1587545000948,,891.14508139994,891.1587545000948,892.1593279000372,892.1593279000372,892.1593279000372,896.027468400076,space,3.861284399870783,None,896.0282510998659,896.1424666667046,896.4533171001822,896.4375912998803,896.4376485999674,896.4533171001822,896.4533171001822,896.4533171001822,899.9443238000385,674,1,[3.5045448997989297],[3.504555799998343],109609,001,2024-11-11_11h11.53.026,intentional binding,2024.1.5,None,2024-11-11 11h11.59.764038 +0530,
0.7,1000,exp,10,11,131,8,899.9589034002274,,899.9450640999712,899.9589034002274,900.9594212998636,900.9594212998636,900.9594212998636,901.577949100174,space,0.6136416997760534,None,901.5788821000606,902.292719166788,902.601592999883,902.5875363000669,902.5875913999043,902.601592999883,902.601592999883,902.601592999883,905.7772172000259,284,1,[3.1875209002755582],[3.187528599984944],109609,001,2024-11-11_11h11.53.026,intentional binding,2024.1.5,None,2024-11-11 11h11.59.764038 +0530,
0.7,1000,exp,11,0,132,8,905.7924406998791,,905.7778211999685,905.7924406998791,906.7928006001748,906.7928006001748,906.7928006001748,909.0946864997968,space,2.286138500086963,None,909.0955126998015,909.8092760667826,910.1233105999418,910.107718499843,910.1077883997932,910.1233105999418,910.1233105999418,910.1233105999418,911.7619610000402,793,1,[1.6514125000685453],[1.6514260000549257],109609,001,2024-11-11_11h11.53.026,intentional binding,2024.1.5,None,2024-11-11 11h11.59.764038 +0530,
0.1,1000,exp,11,1,133,6,911.7758594001643,,911.7626923001371,911.7758594001643,912.7764383000322,912.7764383000322,912.7764383000322,913.7118063000962,space,0.928399299737066,None,913.7133602001704,913.8259056667487,914.1410340000875,914.1278059999458,914.1278515001759,914.1410340000875,914.1410340000875,914.1410340000875,915.9436054998077,238,1,[1.8136537000536919],[1.8136614998802543],109609,001,2024-11-11_11h11.53.026,intentional binding,2024.1.5,None,2024-11-11 11h11.59.764038 +0530,
0.1,1000,exp,11,2,134,9,915.9593479000032,,915.9451990001835,915.9593479000032,916.9427836998366,916.9427836998366,916.9596313000657,917.3110529999249,space,0.35136540001258254,None,917.3118087002076,917.4264864666077,917.7446746001951,917.7282464001328,917.7282869000919,917.7446746001951,917.7446746001951,917.7446746001951,920.7605241001584,573,1,[3.0303981001488864],[3.0304050999693573],109609,001,2024-11-11_11h11.53.026,intentional binding,2024.1.5,None,2024-11-11 11h11.59.764038 +0530,
0.7,1000,exp,11,3,135,5,920.7762512001209,,920.7621156000532,920.7762512001209,921.7761568999849,921.7761568999849,921.7761568999849,924.5787467998452,space,2.796091999858618,None,924.5798356002197,925.2930665668721,925.6025473000482,925.588704300113,925.5887755001895,925.6025473000482,925.6025473000482,925.6025473000482,927.7276514000259,921,1,[2.1367819998413324],[2.136789499782026],109609,001,2024-11-11_11h11.53.026,intentional binding,2024.1.5,None,2024-11-11 11h11.59.764038 +0530,
0.4,1000,exp,11,4,136,10,927.743019499816,,927.7283279998228,927.743019499816,928.7433648998849,928.7433648998849,928.7433648998849,929.8952549002133,space,1.1490454003214836,None,929.896124899853,930.3099586666251,930.62072789995,930.6082671000622,930.6083241999149,930.62072789995,930.62072789995,930.62072789995,933.4275190001354,666,1,[2.817092400044203],[2.817098599858582],109609,001,2024-11-11_11h11.53.026,intentional binding,2024.1.5,None,2024-11-11 11h11.59.764038 +0530,
0.7,1000,exp,11,5,137,11,933.4428898999467,,933.4281338998117,933.4428898999467,934.4431627001613,934.4431627001613,934.4431627001613,936.4120295001194,space,1.9586286996491253,None,936.4133989000693,937.1269881665396,937.4410740002058,937.4287482998334,937.4287785999477,937.4410740002058,937.4410740002058,937.4410740002058,939.1115295002237,777,1,[1.6809537000954151],[1.6809648997150362],109609,001,2024-11-11_11h11.53.026,intentional binding,2024.1.5,None,2024-11-11 11h11.59.764038 +0530,
0.4,4000,unexp,11,6,138,1,939.1265728999861,,939.1122313002124,939.1265728999861,940.1268042000011,940.1268042000011,940.1268042000011,942.0292573999614,space,1.8968348000198603,None,942.0299563999288,942.4434423666137,942.7512003001757,942.738648599945,942.7386851999909,942.7512003001757,942.7512003001757,942.7512003001757,944.0625117002055,888,1,[1.321877900045365],[1.3218924002721906],109609,001,2024-11-11_11h11.53.026,intentional binding,2024.1.5,None,2024-11-11 11h11.59.764038 +0530,
0.4,1000,exp,11,7,139,4,944.0767064001411,,944.0637166998349,944.0767064001411,945.077178500127,945.077178500127,945.077178500127,948.3285761000589,space,3.248890799935907,None,948.3293401999399,948.7436682666341,949.0538445999846,949.0388764999807,949.0389384999871,949.0538445999846,949.0538445999846,949.0538445999846,958.1783857000992,537,1,[9.137253500055522],[9.137262099888176],109609,001,2024-11-11_11h11.53.026,intentional binding,2024.1.5,None,2024-11-11 11h11.59.764038 +0530,
0.4,1000,exp,11,8,140,7,958.194534199778,,958.1792275002226,958.194534199778,959.1935911001638,959.1935911001638,959.1935911001638,960.6948635000736,space,1.4914124002680182,None,960.6955960998312,961.1104996666002,961.4234142000787,961.4097366002388,961.4097951999865,961.4234142000787,961.4234142000787,961.4234142000787,963.7446070001461,25,1,[2.3326147999614477],[2.33262259978801],109609,001,2024-11-11_11h11.53.026,intentional binding,2024.1.5,None,2024-11-11 11h11.59.764038 +0530,
0.7,4000,unexp,11,9,141,2,963.7610269999132,,963.7453230000101,963.7610269999132,964.7605431000702,964.7605431000702,964.7605431000702,965.8951575998217,space,1.1213560001924634,None,965.8958374001086,966.6106388667288,966.9225738001987,966.9105855999514,966.9106295001693,966.9225738001987,966.9225738001987,966.9225738001987,970.4461894999258,23,1,[3.5334975998848677],[3.533510399982333],109609,001,2024-11-11_11h11.53.026,intentional binding,2024.1.5,None,2024-11-11 11h11.59.764038 +0530,
0.1,4000,unexp,11,10,142,0,970.4603655999526,,970.4469747999683,970.4603655999526,971.4611867000349,971.4611867000349,971.4611867000349,973.3290284997784,space,1.862042499706149,None,973.329889500048,973.4439796666304,973.7539224000648,973.7402715999633,973.7403258997947,973.7539224000648,973.7539224000648,973.7539224000648,975.7795776999556,583,1,[2.0357665000483394],[2.0357745001092553],109609,001,2024-11-11_11h11.53.026,intentional binding,2024.1.5,None,2024-11-11 11h11.59.764038 +0530,
0.1,1000,exp,11,11,143,3,975.7943625999615,,975.7807427002117,975.7943625999615,976.7940332000144,976.7940332000144,976.7940332000144,978.2630679002032,space,1.4626913997344673,None,978.2642431999557,978.3779675667795,978.6942966999486,978.6806071000174,978.6806544000283,978.6942966999486,978.6942966999486,978.6942966999486,980.8121989998035,229,1,[2.129627099726349],[2.129635399673134],109609,001,2024-11-11_11h11.53.026,intentional binding,2024.1.5,None,2024-11-11 11h11.59.764038 +0530,
0.7,4000,unexp,12,0,144,2,980.8276491998695,,980.8137020999566,980.8276491998695,981.8276534997858,981.8276534997858,981.8276534997858,983.5298905000091,space,1.6864931001327932,None,983.5311608999036,984.2442678665432,984.5549909002148,984.5407186001539,984.540770499967,984.5549909002148,984.5549909002148,984.5549909002148,988.8122813999653,428,1,[4.2689219997264445],[4.268930899910629],109609,001,2024-11-11_11h11.53.026,intentional binding,2024.1.5,None,2024-11-11 11h11.59.764038 +0530,
0.4,4000,unexp,12,1,145,1,988.8274897001684,,988.8129210001789,988.8274897001684,989.8278387999162,989.8278387999162,989.8278387999162,992.0618006000295,space,2.2205429999157786,None,992.0624681999907,992.4779688665333,992.7977481000125,992.7836670000106,992.7837112001143,992.7977481000125,992.7977481000125,992.7977481000125,999.3959769001231,382,1,[6.609974999912083],[6.609982300084084],109609,001,2024-11-11_11h11.53.026,intentional binding,2024.1.5,None,2024-11-11 11h11.59.764038 +0530,
0.1,1000,exp,12,2,146,9,999.4113175999373,,999.3971706000157,999.4113175999373,1000.411920200102,1000.411920200102,1000.411920200102,1001.4643121999688,space,1.03993030032143,None,1001.4651446999051,1001.578130866463,1001.8843661998399,1001.8705126000568,1001.8705655001104,1001.8843661998399,1001.8843661998399,1001.8843661998399,1008.5290295002051,221 ,1,[6.656389699783176],[6.656396999955177],109609,001,2024-11-11_11h11.53.026,intentional binding,2024.1.5,None,2024-11-11 11h11.59.764038 +0530,
0.1,4000,unexp,12,3,147,0,1008.5450065000914,,1008.5297925001942,1008.5450065000914,1009.5282116997987,1009.5282116997987,1009.5450483998284,1012.2799880001694,space,2.7423040997236967,None,1012.2808198998682,1012.394888966872,1012.7034486001357,1012.6908976999111,1012.6909436997958,1012.7034486001357,1012.7034486001357,1012.7034486001357,1015.9852232001722,537,1,[3.2923153997398913],[3.292324099689722],109609,001,2024-11-11_11h11.53.026,intentional binding,2024.1.5,None,2024-11-11 11h11.59.764038 +0530,
0.7,1000,exp,12,4,148,11,1015.9998749000952,,1015.9858456999063,1015.9998749000952,1016.9953744001687,1016.9953744001687,1017.0117210000753,1019.815130900126,space,2.8164658001624048,None,1019.8161177998409,1020.528736466604,1020.8439345001243,1020.8313707998022,1020.831422700081,1020.8439345001243,1020.8439345001243,1020.8439345001243,1025.9467457002029,264,1,[5.1125640999525785],[5.1129630003124475],109609,001,2024-11-11_11h11.53.026,intentional binding,2024.1.5,None,2024-11-11 11h11.59.764038 +0530,
0.7,1000,exp,12,5,149,5,1025.9623211999424,,1025.9477960998192,1025.9623211999424,1026.961715000216,1026.961715000216,1026.961715000216,1028.8149860999547,space,1.8497108998708427,None,1028.8161912998185,1029.5284744664716,1029.835792799946,1029.8217794001102,1029.821838799864,1029.835792799946,1029.835792799946,1029.835792799946,1032.5126688000746,538,1,[2.6888235001824796],[2.6888312003575265],109609,001,2024-11-11_11h11.53.026,intentional binding,2024.1.5,None,2024-11-11 11h11.59.764038 +0530,
0.4,1000,exp,12,6,150,4,1032.5286166002043,,1032.51349950023,1032.5286166002043,1033.5288045001216,1033.5288045001216,1033.5288045001216,1034.6982876998372,space,1.160763599909842,None,1034.6992123001255,1035.1121913665595,1035.4250342999585,1035.4116759002209,1035.4117236998864,1035.4250342999585,1035.4250342999585,1035.4250342999585,1037.0808938997798,293,1,[1.6668823999352753],[1.6669633002020419],109609,001,2024-11-11_11h11.53.026,intentional binding,2024.1.5,None,2024-11-11 11h11.59.764038 +0530,
0.4,1000,exp,12,7,151,7,1037.0958433002234,,1037.0818862002343,1037.0958433002234,1038.0956280999817,1038.0956280999817,1038.0956280999817,1039.8973325998522,space,1.79726850008592,None,1039.898350100033,1040.3117262665803,1040.61845119996,1040.6031678998843,1040.603214699775,1040.61845119996,1040.61845119996,1040.61845119996,1042.6801287000999,573,1,[2.074515899643302],[2.0745246997103095],109609,001,2024-11-11_11h11.53.026,intentional binding,2024.1.5,None,2024-11-11 11h11.59.764038 +0530,
0.1,1000,exp,12,8,152,6,1042.6960133998655,,1042.6817664001137,1042.6960133998655,1043.6956759998575,1043.6956759998575,1043.6956759998575,1044.8151445002295,space,1.1155534996651113,None,1044.816023199819,1044.929101166843,1045.2343040998094,1045.221755700186,1045.2217906001024,1045.2343040998094,1045.2343040998094,1045.2343040998094,1047.1475931000896,328,1,[1.923333099577576],[1.9233437995426357],109609,001,2024-11-11_11h11.53.026,intentional binding,2024.1.5,None,2024-11-11 11h11.59.764038 +0530,
0.7,1000,exp,12,9,153,8,1047.1619192999788,,1047.148452800233,1047.1619192999788,1048.1625993000343,1048.1625993000343,1048.1625993000343,1048.5483474000357,space,0.379685299936682,None,1048.5492579001002,1049.2629494667674,1049.5762149998918,1049.5618552002124,1049.5619064997882,1049.5762149998918,1049.5762149998918,1049.5762149998918,1051.5644535999745,383,1,[1.9996805000118911],[1.9996911999769509],109609,001,2024-11-11_11h11.53.026,intentional binding,2024.1.5,None,2024-11-11 11h11.59.764038 +0530,
0.4,1000,exp,12,10,154,10,1051.5790364001878,,1051.5651149000041,1051.5790364001878,1052.5794703001156,1052.5794703001156,1052.5794703001156,1054.1495210002176,space,1.5672086998820305,None,1054.150307300035,1054.5625741668666,1054.8749943999574,1054.8627333999611,1054.8627761001699,1054.8749943999574,1054.8749943999574,1054.8749943999574,1057.9135051001795,828,1,[3.0485147000290453],[3.0485225999727845],109609,001,2024-11-11_11h11.53.026,intentional binding,2024.1.5,None,2024-11-11 11h11.59.764038 +0530,
0.1,1000,exp,12,11,155,3,1057.928927199915,,1057.9142913999967,1057.928927199915,1058.9293448999524,1058.9293448999524,1058.9293448999524,1059.582900799811,space,0.6441842000931501,None,1059.5844499999657,1059.6957114665458,1060.0003128000535,1059.9867941997945,1059.9868391999044,1060.0003128000535,1060.0003128000535,1060.0003128000535,1062.6143959001638,458 ,1,[2.625680800061673],[2.6256920001469553],109609,001,2024-11-11_11h11.53.026,intentional binding,2024.1.5,None,2024-11-11 11h11.59.764038 +0530,
0.4,1000,exp,13,0,156,4,1062.6293250001036,,1062.6153680002317,1062.6293250001036,1063.6296504000202,1063.6296504000202,1063.6296504000202,1064.0639058998786,space,0.42490699980407953,None,1064.0653972998261,1064.479331066894,1064.785109499935,1064.77332259994,1064.7733553000726,1064.785109499935,1064.785109499935,1064.785109499935,1066.8147577000782,429 ,1,[2.03919899975881],[2.0392096997238696],109609,001,2024-11-11_11h11.53.026,intentional binding,2024.1.5,None,2024-11-11 11h11.59.764038 +0530,
0.1,1000,exp,13,1,157,9,1066.829360799864,,1066.8155159000307,1066.829360799864,1067.8297036001459,1067.8297036001459,1067.8297036001459,1071.1485755001195,space,3.3078931998461485,None,1071.1495107999071,1071.2629315667475,1071.57713040011,1071.5633902000263,1071.563445799984,1071.57713040011,1071.57713040011,1071.57713040011,1074.0648882999085,133,1,[2.498328400310129],[2.498336700256914],109609,001,2024-11-11_11h11.53.026,intentional binding,2024.1.5,None,2024-11-11 11h11.59.764038 +0530,
0.1,1000,exp,13,2,158,6,1074.0802116999403,,1074.0658833999187,1074.0802116999403,1075.0794311999343,1075.0794311999343,1075.0794311999343,1079.8322407999076,space,4.749278399627656,None,1079.8332124999724,1079.9463648666317,1080.2583054001443,1080.2439605002292,1080.2440037000924,1080.2583054001443,1080.2583054001443,1080.2583054001443,1082.8138215001673,232 ,1,[2.5674696997739375],[2.5674772998318076],109609,001,2024-11-11_11h11.53.026,intentional binding,2024.1.5,None,2024-11-11 11h11.59.764038 +0530,
0.7,4000,unexp,13,3,159,2,1082.8296626000665,,1082.8154266998172,1082.8296626000665,1083.8295967001468,1083.8295967001468,1083.8295967001468,1086.5817430000752,space,2.740641000214964,None,1086.5826137000695,1087.2965627667184,1087.6079187998548,1087.593537400011,1087.5935948002152,1087.6079187998548,1087.6079187998548,1087.6079187998548,1090.9490696000867,231,1,[3.352424000389874],[3.3524337001144886],109609,001,2024-11-11_11h11.53.026,intentional binding,2024.1.5,None,2024-11-11 11h11.59.764038 +0530,
0.4,1000,exp,13,4,160,10,1090.963761500083,,1090.9502228000201,1090.963761500083,1091.9633125001565,1091.9633125001565,1091.9633125001565,1093.5657294997945,space,1.5999549999833107,None,1093.56652389979,1093.9800064666817,1094.2877461002208,1094.2737361998297,1094.2737952000462,1094.2877461002208,1094.2877461002208,1094.2877461002208,1102.2316208002158,631,1,[7.9554881998337805],[7.955497700255364],109609,001,2024-11-11_11h11.53.026,intentional binding,2024.1.5,None,2024-11-11 11h11.59.764038 +0530,
0.7,1000,exp,13,5,161,11,1102.2464842000045,,1102.232356700115,1102.2464842000045,1103.2473570001312,1103.2473570001312,1103.2473570001312,1103.6993069997989,space,0.43698570039123297,None,1103.700212399941,1104.413684066447,1104.7274450999685,1104.713994299993,1104.714043499902,1104.7274450999685,1104.7274450999685,1104.7274450999685,1106.1814152002335,64,1,[1.465236300136894],[1.465248900000006],109609,001,2024-11-11_11h11.53.026,intentional binding,2024.1.5,None,2024-11-11 11h11.59.764038 +0530,
0.7,1000,exp,13,6,162,5,1106.1975059998222,,1106.182143600192,1106.1975059998222,1107.1970294001512,1107.1970294001512,1107.1970294001512,1112.4488185998052,space,5.23794459970668,None,1112.4496368998662,1113.1639743666785,1113.4655643999577,1113.4559679999948,1113.4560003997758,1113.4655643999577,1113.4655643999577,1113.4655643999577,1116.7164284000173,384,1,[3.258885699789971],[3.258897699881345],109609,001,2024-11-11_11h11.53.026,intentional binding,2024.1.5,None,2024-11-11 11h11.59.764038 +0530,
0.7,1000,exp,13,7,163,8,1116.7302882000804,,1116.7171753998846,1116.7302882000804,1117.7302982001565,1117.7302982001565,1117.7302982001565,1118.7845605001785,space,1.0512274000793695,None,1118.7855559000745,1119.4975599665815,1119.8050986998715,1119.7937433999032,1119.7937734997831,1119.8050986998715,1119.8050986998715,1119.8050986998715,1121.7651760000736,583,1,[1.969875999726355],[1.9698847997933626],109609,001,2024-11-11_11h11.53.026,intentional binding,2024.1.5,None,2024-11-11 11h11.59.764038 +0530,
0.1,1000,exp,13,8,164,3,1121.7802746999077,,1121.7658576997928,1121.7802746999077,1122.7807101998478,1122.7807101998478,1122.7807101998478,1130.7333583999425,space,7.945362499915063,None,1130.7342346999794,1130.848065366565,1131.160162600223,1131.1454242998734,1131.1454933998175,1131.160162600223,1131.160162600223,1131.160162600223,1133.7983232000843,128,1,[2.6496562999673188],[2.6496644001454115],109609,001,2024-11-11_11h11.53.026,intentional binding,2024.1.5,None,2024-11-11 11h11.59.764038 +0530,
0.4,4000,unexp,13,9,165,1,1133.8144704001024,,1133.7990152002312,1133.8144704001024,1134.8143476000987,1134.8143476000987,1134.8143476000987,1136.916211700067,space,2.095347700174898,None,1136.9171096999198,1137.3311028667415,1137.6392009002157,1137.6252779997885,1137.6253316001967,1137.6392009002157,1137.6392009002157,1137.6392009002157,1139.3496766998433,213,1,[1.7221774999052286],[1.7221876997500658],109609,001,2024-11-11_11h11.53.026,intentional binding,2024.1.5,None,2024-11-11 11h11.59.764038 +0530,
0.1,4000,unexp,13,10,166,0,1139.3640662999824,,1139.3502911999822,1139.3640662999824,1140.3642369001172,1140.3642369001172,1140.3642369001172,1141.5992295001633,space,1.221274500247091,None,1141.6000749999657,1141.7141232668112,1142.0326998000965,1142.0157846999355,1142.0158465998247,1142.0326998000965,1142.0326998000965,1142.0326998000965,1144.1987427999265,764,1,[2.1803212999366224],[2.18033010000363],109609,001,2024-11-11_11h11.53.026,intentional binding,2024.1.5,None,2024-11-11 11h11.59.764038 +0530,
0.4,1000,exp,13,11,167,7,1144.2144264997914,,1144.1994227999821,1144.2144264997914,1145.2143582999706,1145.2143582999706,1145.2143582999706,1146.966916400008,space,1.7446937998756766,None,1146.9679728997871,1147.3811717667306,1147.6904687997885,1147.6755067999475,1147.6755758998916,1147.6904687997885,1147.6904687997885,1147.6904687997885,1149.5329146999866,324,1,[1.8544348999857903],[1.8544441000558436],109609,001,2024-11-11_11h11.53.026,intentional binding,2024.1.5,None,2024-11-11 11h11.59.764038 +0530,
0.4,1000,exp,14,0,168,7,1149.5476696998812,,1149.5336192999966,1149.5476696998812,1150.5480698999017,1150.5480698999017,1150.5480698999017,1151.56652140012,space,1.012824899982661,None,1151.567306799814,1151.9813498668993,1152.290024700109,1152.275729500223,1152.2757896999829,1152.290024700109,1152.290024700109,1152.290024700109,1155.0332022998482,753,1,[2.755296700168401],[2.7553066997788846],109609,001,2024-11-11_11h11.53.026,intentional binding,2024.1.5,None,2024-11-11 11h11.59.764038 +0530,
0.4,4000,unexp,14,1,169,1,1155.0476917000487,,1155.0337970000692,1155.0476917000487,1156.0479870000854,1156.0479870000854,1156.0479870000854,1157.7003774000332,space,1.6446006000041962,None,1157.7011557999067,1158.1147588669012,1158.4302993998863,1158.4159201998264,1158.4159744000062,1158.4302993998863,1158.4302993998863,1158.4302993998863,1164.2826123000123,136,1,[5.864369300194085],[5.86437870003283],109609,001,2024-11-11_11h11.53.026,intentional binding,2024.1.5,None,2024-11-11 11h11.59.764038 +0530,
0.1,1000,exp,14,2,170,3,1164.2983238999732,,1164.2832394000143,1164.2983238999732,1165.2981519000605,1165.2981519000605,1165.2981519000605,1168.134062500205,space,2.8257558001205325,None,1168.135418199934,1168.247850966702,1168.5482882000506,1168.5328581999056,1168.5329121998511,1168.5482882000506,1168.5482882000506,1168.5482882000506,1171.2838078001514,686,1,[2.7485149996355176],[2.7485279999673367],109609,001,2024-11-11_11h11.53.026,intentional binding,2024.1.5,None,2024-11-11 11h11.59.764038 +0530,
0.7,1000,exp,14,3,171,5,1171.298862699885,,1171.2851526001468,1171.298862699885,1172.2980805002153,1172.2980805002153,1172.2980805002153,1173.583980999887,space,1.2828946001827717,None,1173.58473100001,1174.2984046666572,1174.6091223000549,1174.5962602999061,1174.5963179999962,1174.6091223000549,1174.6091223000549,1174.6091223000549,1176.9855141001754,583,1,[2.3853342002257705],[2.385432700160891],109609,001,2024-11-11_11h11.53.026,intentional binding,2024.1.5,None,2024-11-11 11h11.59.764038 +0530,
0.7,4000,unexp,14,4,172,2,1176.99889349984,,1176.9867616998963,1176.99889349984,1177.99854280008,1177.99854280008,1177.99854280008,1178.5665703001432,space,0.5562638998962939,None,1178.5672317999415,1179.282034966691,1179.6096593998373,1179.5992042999715,1179.59924650006,1179.6096593998373,1179.6096593998373,1179.6096593998373,1182.250741600059,432,1,[2.649308499880135],[2.6493196999654174],109609,001,2024-11-11_11h11.53.026,intentional binding,2024.1.5,None,2024-11-11 11h11.59.764038 +0530,
0.7,1000,exp,14,5,173,11,1182.2650494999252,,1182.251743900124,1182.2650494999252,1183.2654194999486,1183.2654194999486,1183.2654194999486,1185.2845507999882,space,2.0041896998882294,None,1185.2854837998748,1185.9984555668818,1186.3177211000584,1186.3012052001432,1186.3012482002378,1186.3177211000584,1186.3177211000584,1186.3177211000584,1188.0345427999273,482,1,[1.730593299958855],[1.7306028995662928],109609,001,2024-11-11_11h11.53.026,intentional binding,2024.1.5,None,2024-11-11 11h11.59.764038 +0530,
0.1,1000,exp,14,6,174,6,1188.0490053999238,,1188.035333099775,1188.0490053999238,1189.04887040006,1189.04887040006,1189.04887040006,1190.067532400135,space,1.0162407997995615,None,1190.0684016002342,1190.1818653667035,1190.49194550002,1190.4768897001632,1190.4769509001635,1190.49194550002,1190.49194550002,1190.49194550002,1192.6837828001007,583,1,[2.204669199883938],[2.2046779999509454],109609,001,2024-11-11_11h11.53.026,intentional binding,2024.1.5,None,2024-11-11 11h11.59.764038 +0530,
0.4,1000,exp,14,7,175,10,1192.6989271999337,,1192.684482099954,1192.6989271999337,1193.6991269001737,1193.6991269001737,1193.6991269001737,1194.4669792000204,space,0.7624721000902355,None,1194.4676009998657,1194.8824200668062,1195.191137699876,1195.1781792999245,1195.1782312002033,1195.191137699876,1195.191137699876,1195.191137699876,1197.4502647002228,549,1,[2.2696261000819504],[2.2696348996832967],109609,001,2024-11-11_11h11.53.026,intentional binding,2024.1.5,None,2024-11-11 11h11.59.764038 +0530,
0.1,1000,exp,14,8,176,9,1197.4653512998484,,1197.4509704001248,1197.4653512998484,1198.465633300133,1198.465633300133,1198.465633300133,1199.4009321997873,space,0.9231187999248505,None,1199.401841300074,1199.515591966516,1199.8269441002049,1199.8166291997768,1199.81666939985,1199.8269441002049,1199.8269441002049,1199.8269441002049,1203.083769899793,539 ,1,[3.2649738998152316],[3.2649819999933243],109609,001,2024-11-11_11h11.53.026,intentional binding,2024.1.5,None,2024-11-11 11h11.59.764038 +0530,
0.1,4000,unexp,14,9,177,0,1203.0989053999074,,1203.084498600103,1203.0989053999074,1204.0992258000188,1204.0992258000188,1204.0992258000188,1205.9859870001674,space,1.8842221000231802,None,1205.987122700084,1206.0989947668897,1206.4132198998705,1206.3974629999138,1206.3975399998017,1206.4132198998705,1206.4132198998705,1206.4132198998705,1208.7499588998035,64,1,[2.3497907002456486],[2.349797200411558],109609,001,2024-11-11_11h11.53.026,intentional binding,2024.1.5,None,2024-11-11 11h11.59.764038 +0530,
0.7,1000,exp,14,10,178,8,1208.7656522998586,,1208.7514125001617,1208.7656522998586,1209.7657881998457,1209.7657881998457,1209.7657881998457,1210.918323500082,space,1.150255300104618,None,1210.919099099934,1211.6324345665673,1211.9411387001164,1211.9275042000227,1211.927568799816,1211.9411387001164,1211.9411387001164,1211.9411387001164,1214.467305699829,53,1,[2.537159899715334],[2.5371669996529818],109609,001,2024-11-11_11h11.53.026,intentional binding,2024.1.5,None,2024-11-11 11h11.59.764038 +0530,
0.4,1000,exp,14,11,179,4,1214.4825285999104,,1214.4679483999498,1214.4825285999104,1215.4828452998772,1215.4828452998772,1215.4828452998772,1216.8170150001533,space,1.3300737999379635,None,1216.8176107998006,1217.2326966664443,1217.5428663999774,1217.527593600098,1217.5276517998427,1217.5428663999774,1217.5428663999774,1217.5428663999774,1223.4668005001731,321,1,[5.937102899886668],[5.937111099716276],109609,001,2024-11-11_11h11.53.026,intentional binding,2024.1.5,None,2024-11-11 11h11.59.764038 +0530,
0.7,1000,exp,15,0,180,11,1223.4828992001712,,1223.4674252998084,1223.4828992001712,1224.4829366998747,1224.4829366998747,1224.4829366998747,1227.7183139999397,space,3.2315083001740277,None,1227.719200800173,1228.4328004667225,1228.7421837998554,1228.7280326001346,1228.7280851001851,1228.7421837998554,1228.7421837998554,1228.7421837998554,1230.6345092998818,64,1,[1.9032987002283335],[1.9033054001629353],109609,001,2024-11-11_11h11.53.026,intentional binding,2024.1.5,None,2024-11-11 11h11.59.764038 +0530,
0.7,1000,exp,15,1,181,8,1230.6496971999295,,1230.6351693999022,1230.6496971999295,1231.6495342999697,1231.6495342999697,1231.6495342999697,1233.269377599936,space,1.615102400071919,None,1233.270255799871,1233.9833427668239,1234.283006499987,1234.2721647000872,1234.2721914998256,1234.283006499987,1234.283006499987,1234.283006499987,1237.7339253001846,90,1,[3.4603410996496677],[3.4603497995994985],109609,001,2024-11-11_11h11.53.026,intentional binding,2024.1.5,None,2024-11-11 11h11.59.764038 +0530,
0.4,4000,unexp,15,2,182,1,1237.7494227997959,,1237.7348107001744,1237.7494227997959,1238.7494006999768,1238.7494006999768,1238.7494006999768,1241.3860447001643,space,2.626716800034046,None,1241.3868875000626,1241.799818366828,1242.1115337000228,1242.0988527000882,1242.098902999889,1242.1115337000228,1242.1115337000228,1242.1115337000228,1244.13520709984,57,1,[2.0340108000673354],[2.034021200146526],109609,001,2024-11-11_11h11.53.026,intentional binding,2024.1.5,None,2024-11-11 11h11.59.764038 +0530,
0.7,1000,exp,15,3,183,5,1244.149433999788,,1244.1362518998794,1244.149433999788,1245.1500781998038,1245.1500781998038,1245.1500781998038,1247.4181002997793,space,2.2637163000181317,None,1247.419051699806,1248.1328915665547,1248.435966399964,1248.4245894001797,1248.4246276002377,1248.435966399964,1248.435966399964,1248.435966399964,1249.3175153001212,8,1,[0.8911973997019231],[0.8912049001082778],109609,001,2024-11-11_11h11.53.026,intentional binding,2024.1.5,None,2024-11-11 11h11.59.764038 +0530,
0.4,1000,exp,15,4,184,7,1249.333095899783,,1249.3182414001785,1249.333095899783,1250.333688300103,1250.333688300103,1250.333688300103,1250.9202812998556,space,0.5845866999588907,None,1250.9210823997855,1251.3333585668045,1251.6648184000514,1251.6502376999706,1251.6502815000713,1251.6648184000514,1251.6648184000514,1251.6648184000514,1253.517995300237,44,1,[1.8653644998557866],[1.8653726000338793],109609,001,2024-11-11_11h11.53.026,intentional binding,2024.1.5,None,2024-11-11 11h11.59.764038 +0530,
0.1,1000,exp,15,5,185,9,1253.5332269999199,,1253.518839799799,1253.5332269999199,1254.5335121001117,1254.5335121001117,1254.5335121001117,1255.9354508002289,space,1.391839399933815,None,1255.9362419000827,1256.049938166576,1256.3593882001005,1256.3489431999624,1256.3489823997952,1256.3593882001005,1256.3593882001005,1256.3593882001005,1257.718091300223,87,1,[1.367338899988681],[1.367349799722433],109609,001,2024-11-11_11h11.53.026,intentional binding,2024.1.5,None,2024-11-11 11h11.59.764038 +0530,
0.7,4000,unexp,15,6,186,2,1257.7331554000266,,1257.719083600212,1257.7331554000266,1258.733189099934,1258.733189099934,1258.733189099934,1260.4842723999172,space,1.737041199579835,None,1260.4848492001183,1261.1999139665315,1261.5115946000442,1261.4945326000452,1261.4945792998187,1261.5115946000442,1261.5115946000442,1261.5115946000442,1263.135127400048,23 ,1,[1.6379783996380866],[1.6379872998222709],109609,001,2024-11-11_11h11.53.026,intentional binding,2024.1.5,None,2024-11-11 11h11.59.764038 +0530,
0.4,1000,exp,15,7,187,10,1263.1498962999322,,1263.1362894000486,1263.1498962999322,1264.150242799893,1264.150242799893,1264.150242799893,1266.0521003999747,space,1.8850246001966298,None,1266.0529187000357,1266.4672373668911,1266.7823219997808,1266.76978519978,1266.7698431001045,1266.7823219997808,1266.7823219997808,1266.7823219997808,1268.4681406999007,53,1,[1.6961475000716746],[1.696156400255859],109609,001,2024-11-11_11h11.53.026,intentional binding,2024.1.5,None,2024-11-11 11h11.59.764038 +0530,
0.1,1000,exp,15,8,188,3,1268.484174199868,,1268.4687799001113,1268.484174199868,1269.4836098998785,1269.4836098998785,1269.4836098998785,1270.6194803998806,space,1.129318400286138,None,1270.6203990997747,1270.7334090667466,,1271.0164290000685,1271.0164780998603,1271.0311246998608,1271.0311246998608,1271.0311246998608,1273.7348809000105, 425,1,[2.716434100177139],[2.716444400139153],109609,001,2024-11-11_11h11.53.026,intentional binding,2024.1.5,None,2024-11-11 11h11.59.764038 +0530,
0.1,4000,unexp,15,9,189,0,1273.750106799882,,1273.7363629001193,1273.750106799882,1274.7503899000585,1274.7503899000585,1274.7503899000585,1277.2517977999523,space,2.493662199936807,None,1277.2524717999622,1277.3672691668073,1277.6794476998039,1277.662912500091,1277.6629659999162,1277.6794476998039,1277.6794476998039,1277.6794476998039,1279.5373701001517,675,1,[1.8714975998736918],[1.8715242999605834],109609,001,2024-11-11_11h11.53.026,intentional binding,2024.1.5,None,2024-11-11 11h11.59.764038 +0530,
0.1,1000,exp,15,10,190,6,1279.550637200009,,1279.538446099963,1279.550637200009,1280.5507144001313,1280.5507144001313,1280.5507144001313,1281.4027652000077,space,0.8493402996100485,None,1281.40433020005,1281.5170928668852,1281.8363330001011,1281.8199102999642,1281.8199591999874,1281.8363330001011,1281.8363330001011,1281.8363330001011,1283.870431299787,985,1,[2.0477618002332747],[2.047777300234884],109609,001,2024-11-11_11h11.53.026,intentional binding,2024.1.5,None,2024-11-11 11h11.59.764038 +0530,
0.4,1000,exp,15,11,191,4,1283.884124299977,,1283.8716692999005,1283.884124299977,1284.8837831998244,1284.8837831998244,1284.8837831998244,1286.135495599825,space,1.2473651999607682,None,1286.1362205999903,1286.5511554666484,1286.8658237000927,1286.853292199783,1286.8533497001044,1286.8658237000927,1286.8658237000927,1286.8658237000927,1289.8186168000102,536,1,[2.963053600396961],[2.9630660000257194],109609,001,2024-11-11_11h11.53.026,intentional binding,2024.1.5,None,2024-11-11 11h11.59.764038 +0530,
0.1,1000,exp,16,0,192,3,1289.8337727999315,,1289.8206953001209,1289.8337727999315,1290.8342124000192,1290.8342124000192,1290.8342124000192,1291.8698799000122,space,1.0295866001397371,None,1291.870844999794,1291.984134766801,1292.2944498001598,1292.2815379998647,1292.2815835000947,1292.2944498001598,1292.2944498001598,1292.2944498001598,1294.9522820999846,854,1,[2.668285799678415],[2.6682959999889135],109609,001,2024-11-11_11h11.53.026,intentional binding,2024.1.5,None,2024-11-11 11h11.59.764038 +0530,
0.4,4000,unexp,16,1,193,1,1294.9675031998195,,1294.9538147998974,1294.9675031998195,1295.9676659000106,1295.9676659000106,1295.9676659000106,1302.9032092997804,space,6.929131400305778,None,1302.9040983999148,1303.3175905668797,1303.6296604000963,1303.615906199906,1303.6159788998775,1303.6296604000963,1303.6296604000963,1303.6296604000963,1306.2533745002002,34,1,[2.634860100224614],[2.634872200433165],109609,001,2024-11-11_11h11.53.026,intentional binding,2024.1.5,None,2024-11-11 11h11.59.764038 +0530,
0.7,1000,exp,16,2,194,5,1306.2677767002024,,1306.2545591997914,1306.2677767002024,1307.2682463000529,1307.2682463000529,1307.2682463000529,1309.5731282997876,space,2.2933910000137985,None,1309.5746912998147,1310.2844012668977,1310.5940074999817,1310.58096700022,1310.5810286002234,1310.5940074999817,1310.5940074999817,1310.5940074999817,1312.503203399945,583,1,[1.9197690999135375],[1.919783300254494],109609,001,2024-11-11_11h11.53.026,intentional binding,2024.1.5,None,2024-11-11 11h11.59.764038 +0530,
0.7,1000,exp,16,3,195,11,1312.5182587997988,,1312.5056758997962,1312.5182587997988,1313.5184084000066,1313.5184084000066,1313.5184084000066,1315.419907799922,space,1.893137900158763,None,1315.4210422998294,1316.1345342668394,,1316.4119751001708,1316.4120156997815,1316.4260848001577,1316.4260848001577,1316.4260848001577,1318.1359228999354,25,1,[1.7217966997995973],[1.7218043999746442],109609,001,2024-11-11_11h11.53.026,intentional binding,2024.1.5,None,2024-11-11 11h11.59.764038 +0530,
0.4,1000,exp,16,4,196,7,1318.1511228000745,,1318.1365873999894,1318.1511228000745,1319.151946300175,1319.151946300175,1319.151946300175,1320.5876978999004,space,1.4207577998749912,None,1320.588628999889,1321.0014771666067,1321.3140528998338,1321.3013642001897,1321.3014202001505,1321.3140528998338,1321.3140528998338,1321.3140528998338,1324.702469300013,388,1,[3.399054900277406],[3.3990636998787522],109609,001,2024-11-11_11h11.53.026,intentional binding,2024.1.5,None,2024-11-11 11h11.59.764038 +0530,
0.1,1000,exp,16,5,197,6,1324.7184597998857,,1324.7033796999604,1324.7184597998857,1325.7179219000973,1325.7179219000973,1325.7179219000973,1327.9035693001933,space,2.1723206001333892,None,1327.9041431997903,1328.0186731666947,1328.3258441002108,1328.3118846002035,1328.3119349000044,1328.3258441002108,1328.3258441002108,1328.3258441002108,1329.7867195000872,584,1,[1.4726866004057229],[1.4726961003616452],109609,001,2024-11-11_11h11.53.026,intentional binding,2024.1.5,None,2024-11-11 11h11.59.764038 +0530,
0.7,1000,exp,16,6,198,8,1329.8023323998787,,1329.7883429001085,1329.8023323998787,1330.8016437999904,1330.8016437999904,1330.8016437999904,1332.01996350009,space,1.2018284001387656,None,1332.020689799916,1332.7357703666823,1333.0467980001122,1333.0321236997843,1333.0321808001027,1333.0467980001122,1333.0467980001122,1333.0467980001122,1335.5533241000958,249,1,[2.517912299837917],[2.5179261001758277],109609,001,2024-11-11_11h11.53.026,intentional binding,2024.1.5,None,2024-11-11 11h11.59.764038 +0530,
0.4,1000,exp,16,7,199,10,1335.5683724000119,,1335.554245499894,1335.5683724000119,1336.568711000029,1336.568711000029,1336.568711000029,1337.7204459002241,space,1.1382245998829603,None,1337.7211393998004,1338.1349685667703,1338.4475257000886,1338.4318563998677,1338.4319211998954,1338.4475257000886,1338.4475257000886,1338.4475257000886,1338.8367150998674,,1,[0.4008527002297342],[0.40086229983717203],109609,001,2024-11-11_11h11.53.026,intentional binding,2024.1.5,None,2024-11-11 11h11.59.764038 +0530,
