pos,corr_resp,trials.thisRepN,trials.thisTrialN,trials.thisN,trials.thisIndex,trials_2.thisRepN,trials_2.thisTrialN,trials_2.thisN,trials_2.thisIndex,thisRow.t,notes,trial.started,fixation.started,line1.started,line2.started,line3.started,line4.started,fixation.stopped,probe.started,key_resp.started,trial.stopped,key_resp.keys,key_resp.corr,key_resp.rt,key_resp.duration,participant,session,date,expName,psychopyVersion,frameRate,expStart,
-50,x,0,0,0,0,,,,,0.013211199955549091,,0.00897849997272715,0.013211199955549091,1.0069848999846727,1.0069848999846727,1.0069848999846727,1.0069848999846727,1.0255792000098154,2.0073220999911427,2.0073220999911427,4.1980403999914415,x,1,2.168516300036572,None,192582,001,2024-10-15_14h37.19.056,motor sequence laerning,2024.1.5,None,2024-10-15 14h37.27.132011 +0530,
150,v,0,1,1,1,,,,,4.207191599998623,,4.19970379996812,4.207191599998623,5.207610199984629,5.207610199984629,5.207610199984629,5.207610199984629,5.207610199984629,6.207151899987366,6.207151899987366,7.793238499958534,v,1,1.5826347000547685,None,192582,001,2024-10-15_14h37.19.056,motor sequence laerning,2024.1.5,None,2024-10-15 14h37.27.132011 +0530,
50,c,0,2,2,2,,,,,7.807258999964688,,7.795095499954186,7.807258999964688,8.807958099991083,8.807958099991083,8.807958099991083,8.807958099991083,8.807958099991083,9.80788619996747,9.80788619996747,10.87671549996594,c,1,1.0562093000044115,None,192582,001,2024-10-15_14h37.19.056,motor sequence laerning,2024.1.5,None,2024-10-15 14h37.27.132011 +0530,
-150,z,0,3,3,3,,,,,10.891175500000827,,10.878579000011086,10.891175500000827,11.891509799985215,11.891509799985215,11.891509799985215,11.891509799985215,11.891509799985215,12.891103099973407,12.891103099973407,13.894010499992874,z,1,0.9955658999970183,None,192582,001,2024-10-15_14h37.19.056,motor sequence laerning,2024.1.5,None,2024-10-15 14h37.27.132011 +0530,
-50,x,1,0,4,0,,,,,13.907713699969463,,13.895823600003496,13.907713699969463,14.907798499974888,14.907798499974888,14.907798499974888,14.907798499974888,14.907798499974888,15.907792199985124,15.907792199985124,16.759324199985713,x,1,0.8382414000225253,None,192582,001,2024-10-15_14h37.19.056,motor sequence laerning,2024.1.5,None,2024-10-15 14h37.27.132011 +0530,
150,v,1,1,5,1,,,,,16.773871499986853,,16.760733800008893,16.773871499986853,17.773936899960972,17.773936899960972,17.773936899960972,17.773936899960972,17.773936899960972,18.774162899993826,18.774162899993826,19.5252046000096,v,1,0.7433392000384629,None,192582,001,2024-10-15_14h37.19.056,motor sequence laerning,2024.1.5,None,2024-10-15 14h37.27.132011 +0530,
50,c,1,2,6,2,,,,,19.540784499957226,,19.526460799970664,19.540784499957226,20.54113560001133,20.54113560001133,20.54113560001133,20.54113560001133,20.54113560001133,21.541087199992035,21.541087199992035,22.326504099997692,c,1,0.7766358000226319,None,192582,001,2024-10-15_14h37.19.056,motor sequence laerning,2024.1.5,None,2024-10-15 14h37.27.132011 +0530,
-150,z,1,3,7,3,,,,,22.34138030000031,,22.327818599995226,22.34138030000031,23.341404899954796,23.341404899954796,23.341404899954796,23.341404899954796,23.341404899954796,24.34121879999293,24.34121879999293,25.109493399970233,z,1,0.751261199999135,None,192582,001,2024-10-15_14h37.19.056,motor sequence laerning,2024.1.5,None,2024-10-15 14h37.27.132011 +0530,
-50,x,2,0,8,0,,,,,25.123974399990402,,25.11115549999522,25.123974399990402,26.124768599984236,26.124768599984236,26.124768599984236,26.124768599984236,26.124768599984236,27.124716499994975,27.124716499994975,27.92769749998115,x,1,0.798774599970784,None,192582,001,2024-10-15_14h37.19.056,motor sequence laerning,2024.1.5,None,2024-10-15 14h37.27.132011 +0530,
150,v,2,1,9,1,,,,,27.941435399989132,,27.92950909998035,27.941435399989132,28.941400399955455,28.941400399955455,28.941400399955455,28.941400399955455,28.941400399955455,29.94160009996267,29.94160009996267,30.71090909995837,v,1,0.7542282000067644,None,192582,001,2024-10-15_14h37.19.056,motor sequence laerning,2024.1.5,None,2024-10-15 14h37.27.132011 +0530,
50,c,2,2,10,2,,,,,30.72459150000941,,30.712294399971142,30.72459150000941,31.72481369995512,31.72481369995512,31.72481369995512,31.72481369995512,31.72481369995512,32.72445909999078,32.72445909999078,33.76020369998878,c,1,1.030649500025902,None,192582,001,2024-10-15_14h37.19.056,motor sequence laerning,2024.1.5,None,2024-10-15 14h37.27.132011 +0530,
-150,z,2,3,11,3,,,,,33.77448419999564,,33.76171890000114,33.77448419999564,34.77471799997147,34.77471799997147,34.77471799997147,34.77471799997147,34.77471799997147,35.774592000001576,35.774592000001576,36.510064899979625,z,1,0.721480599953793,None,192582,001,2024-10-15_14h37.19.056,motor sequence laerning,2024.1.5,None,2024-10-15 14h37.27.132011 +0530,
-50,x,3,0,12,0,,,,,36.52463329996681,,36.511454099963885,36.52463329996681,37.524963599978946,37.524963599978946,37.524963599978946,37.524963599978946,37.524963599978946,38.52441539999563,38.52441539999563,39.293204199988395,x,1,0.752006699971389,None,192582,001,2024-10-15_14h37.19.056,motor sequence laerning,2024.1.5,None,2024-10-15 14h37.27.132011 +0530,
150,v,3,1,13,1,,,,,39.3083803000045,,39.294791999971494,39.3083803000045,40.30813630000921,40.30813630000921,40.30813630000921,40.30813630000921,40.30813630000921,41.30844689998776,41.30844689998776,42.060225899971556,v,1,0.7470176999922842,None,192582,001,2024-10-15_14h37.19.056,motor sequence laerning,2024.1.5,None,2024-10-15 14h37.27.132011 +0530,
50,c,3,2,14,2,,,,,42.0748502999777,,42.06165309995413,42.0748502999777,43.074787899968214,43.074787899968214,43.074787899968214,43.074787899968214,43.074787899968214,44.074909499962814,44.074909499962814,45.01108580001164,c,1,0.9260279999580234,None,192582,001,2024-10-15_14h37.19.056,motor sequence laerning,2024.1.5,None,2024-10-15 14h37.27.132011 +0530,
-150,z,3,3,15,3,,,,,45.024794599972665,,45.01256519998424,45.024794599972665,46.0249693999649,46.0249693999649,46.0249693999649,46.0249693999649,46.0249693999649,47.0244886999717,47.0244886999717,47.759803399967495,z,1,0.7265995999914594,None,192582,001,2024-10-15_14h37.19.056,motor sequence laerning,2024.1.5,None,2024-10-15 14h37.27.132011 +0530,
-50,x,4,0,16,0,,,,,47.77485839999281,,47.76143809995847,47.77485839999281,48.77511449996382,48.77511449996382,48.77511449996382,48.77511449996382,48.77511449996382,49.774707500007935,49.774707500007935,50.510939300002065,x,1,0.727653999987524,None,192582,001,2024-10-15_14h37.19.056,motor sequence laerning,2024.1.5,None,2024-10-15 14h37.27.132011 +0530,
150,v,4,1,17,1,,,,,50.52460559998872,,50.51293679996161,50.52460559998872,51.52507519995561,51.52507519995561,51.52507519995561,51.52507519995561,51.52507519995561,52.525082500011194,52.525082500011194,53.311067799979355,v,1,0.7704468000447378,None,192582,001,2024-10-15_14h37.19.056,motor sequence laerning,2024.1.5,None,2024-10-15 14h37.27.132011 +0530,
50,c,4,2,18,2,,,,,53.32473950000713,,53.3124722999637,53.32473950000713,54.32523199997377,54.32523199997377,54.32523199997377,54.32523199997377,54.32523199997377,55.32499459997052,55.32499459997052,56.07774779997999,c,1,0.7355247000232339,None,192582,001,2024-10-15_14h37.19.056,motor sequence laerning,2024.1.5,None,2024-10-15 14h37.27.132011 +0530,
-150,z,4,3,19,3,,,,,56.0917855000007,,56.07923319999827,56.0917855000007,57.09190870000748,57.09190870000748,57.09190870000748,57.09190870000748,57.09190870000748,58.0918837999925,58.0918837999925,58.827133899962064,z,1,0.7289856999996118,None,192582,001,2024-10-15_14h37.19.056,motor sequence laerning,2024.1.5,None,2024-10-15 14h37.27.132011 +0530,
-50,x,5,0,20,0,,,,,58.84203339996748,,58.828478000010364,58.84203339996748,59.84231489995727,59.84231489995727,59.84231489995727,59.84231489995727,59.84231489995727,60.84231999999611,60.84231999999611,61.49441569996998,x,1,0.6381842999835499,None,192582,001,2024-10-15_14h37.19.056,motor sequence laerning,2024.1.5,None,2024-10-15 14h37.27.132011 +0530,
150,v,5,1,21,1,,,,,61.50863799999934,,61.49599279998802,61.50863799999934,62.50892399996519,62.50892399996519,62.50892399996519,62.50892399996519,62.50892399996519,63.508864899980836,63.508864899980836,64.19401909998851,v,1,0.6746122000040486,None,192582,001,2024-10-15_14h37.19.056,motor sequence laerning,2024.1.5,None,2024-10-15 14h37.27.132011 +0530,
50,c,5,2,22,2,,,,,64.20885589998215,,64.19557489996077,64.20885589998215,65.20896459999494,65.20896459999494,65.20896459999494,65.20896459999494,65.20896459999494,66.20876979996683,66.20876979996683,66.92770120000932,c,1,0.7100345999933779,None,192582,001,2024-10-15_14h37.19.056,motor sequence laerning,2024.1.5,None,2024-10-15 14h37.27.132011 +0530,
-150,z,5,3,23,3,,,,,66.94202729995595,,66.92908039997565,66.94202729995595,67.94248919998063,67.94248919998063,67.94248919998063,67.94248919998063,67.94248919998063,68.94196019996889,68.94196019996889,69.62838269997155,z,1,0.6816770999575965,None,192582,001,2024-10-15_14h37.19.056,motor sequence laerning,2024.1.5,None,2024-10-15 14h37.27.132011 +0530,
-50,x,6,0,24,0,,,,,69.64222529996186,,69.63028599997051,69.64222529996186,70.64238079998177,70.64238079998177,70.64238079998177,70.64238079998177,70.64238079998177,71.64251849998254,71.64251849998254,72.22734009998385,x,1,0.569456800003536,None,192582,001,2024-10-15_14h37.19.056,motor sequence laerning,2024.1.5,None,2024-10-15 14h37.27.132011 +0530,
150,v,6,1,25,1,,,,,72.24274549999973,,72.22872219997225,72.24274549999973,73.24264710000716,73.24264710000716,73.24264710000716,73.24264710000716,73.24264710000716,74.24205149995396,74.24205149995396,76.04500479996204,v,1,1.788761899981182,None,192582,001,2024-10-15_14h37.19.056,motor sequence laerning,2024.1.5,None,2024-10-15 14h37.27.132011 +0530,
50,c,6,2,26,2,,,,,76.05910690000746,,76.04664119996596,76.05910690000746,77.05926069995621,77.05926069995621,77.05926069995621,77.05926069995621,77.05926069995621,78.05930490000173,78.05930490000173,78.66230219998397,c,1,0.5908509999862872,None,192582,001,2024-10-15_14h37.19.056,motor sequence laerning,2024.1.5,None,2024-10-15 14h37.27.132011 +0530,
-150,z,6,3,27,3,,,,,78.67550760001177,,78.66406829998596,78.67550760001177,79.67567979998421,79.67567979998421,79.67567979998421,79.67567979998421,79.67567979998421,80.67543539998587,80.67543539998587,81.29567439999664,z,1,0.6044076000107452,None,192582,001,2024-10-15_14h37.19.056,motor sequence laerning,2024.1.5,None,2024-10-15 14h37.27.132011 +0530,
-50,x,7,0,28,0,,,,,81.3094635999878,,81.29714679997414,81.3094635999878,82.3088270999724,82.3088270999724,82.3088270999724,82.3088270999724,82.3088270999724,83.30929149995791,83.30929149995791,84.39504420000594,x,1,1.073130399978254,None,192582,001,2024-10-15_14h37.19.056,motor sequence laerning,2024.1.5,None,2024-10-15 14h37.27.132011 +0530,
150,v,7,1,29,1,,,,,84.40936729998793,,84.39675129996613,84.40936729998793,85.40943479997804,85.40943479997804,85.40943479997804,85.40943479997804,85.40943479997804,86.40885399997933,86.40885399997933,87.92799259995809,v,1,1.5027557000285015,None,192582,001,2024-10-15_14h37.19.056,motor sequence laerning,2024.1.5,None,2024-10-15 14h37.27.132011 +0530,
50,c,7,2,30,2,,,,,87.9428180999821,,87.92988129996229,87.9428180999821,88.94313819997478,88.94313819997478,88.94313819997478,88.94313819997478,88.94313819997478,89.94254729995737,89.94254729995737,91.14401170000201,c,1,1.1858195000095293,None,192582,001,2024-10-15_14h37.19.056,motor sequence laerning,2024.1.5,None,2024-10-15 14h37.27.132011 +0530,
-150,z,7,3,31,3,,,,,91.15948219998972,,91.14563099999214,91.15948219998972,92.15932299999986,92.15932299999986,92.15932299999986,92.15932299999986,92.15932299999986,93.1596943999757,93.1596943999757,95.66105910000624,z,1,2.4970835999702103,None,192582,001,2024-10-15_14h37.19.056,motor sequence laerning,2024.1.5,None,2024-10-15 14h37.27.132011 +0530,
-50,x,8,0,32,0,,,,,95.67564999999013,,95.66304169996874,95.67564999999013,96.67602349998197,96.67602349998197,96.67602349998197,96.67602349998197,96.67602349998197,97.67621119995601,97.67621119995601,98.82862009998644,x,1,1.1484578999807127,None,192582,001,2024-10-15_14h37.19.056,motor sequence laerning,2024.1.5,None,2024-10-15 14h37.27.132011 +0530,
150,v,8,1,33,1,,,,,98.8427345000091,,98.83031039999332,98.8427345000091,99.84251940000104,99.84251940000104,99.84251940000104,99.84251940000104,99.84251940000104,100.8423432999989,100.8423432999989,101.56225329998415,v,1,0.7175184999941848,None,192582,001,2024-10-15_14h37.19.056,motor sequence laerning,2024.1.5,None,2024-10-15 14h37.27.132011 +0530,
50,c,8,2,34,2,,,,,101.5759146999917,,101.56337689998327,101.5759146999917,102.57601540000178,102.57601540000178,102.57601540000178,102.57601540000178,102.57601540000178,103.57592989999102,103.57592989999102,104.36188559996663,c,1,0.7794691000017338,None,192582,001,2024-10-15_14h37.19.056,motor sequence laerning,2024.1.5,None,2024-10-15 14h37.27.132011 +0530,
-150,z,8,3,35,3,,,,,104.37605189997703,,104.36372709996067,104.37605189997703,105.37627020000946,105.37627020000946,105.37627020000946,105.37627020000946,105.37627020000946,106.37630850001005,106.37630850001005,106.91172689996893,z,1,0.5296053999918513,None,192582,001,2024-10-15_14h37.19.056,motor sequence laerning,2024.1.5,None,2024-10-15 14h37.27.132011 +0530,
-50,x,9,0,36,0,,,,,106.92591609997908,,106.91313409997383,106.92591609997908,107.92628329998115,107.92628329998115,107.92628329998115,107.92628329998115,107.92628329998115,108.92642400000477,108.92642400000477,109.8615839999984,x,1,0.9282116999966092,None,192582,001,2024-10-15_14h37.19.056,motor sequence laerning,2024.1.5,None,2024-10-15 14h37.27.132011 +0530,
150,v,9,1,37,1,,,,,109.8758366999682,,109.86310899996897,109.8758366999682,110.8763877999736,110.8763877999736,110.8763877999736,110.8763877999736,110.8763877999736,111.8759044999606,111.8759044999606,112.87832349998644,v,1,0.9962926000007428,None,192582,001,2024-10-15_14h37.19.056,motor sequence laerning,2024.1.5,None,2024-10-15 14h37.27.132011 +0530,
50,c,9,2,38,2,,,,,112.89322739996715,,112.87956500001019,112.89322739996715,113.89357829996152,113.89357829996152,113.89357829996152,113.89357829996152,113.89357829996152,114.89310869999463,114.89310869999463,115.67968599998858,c,1,0.7833201999892481,None,192582,001,2024-10-15_14h37.19.056,motor sequence laerning,2024.1.5,None,2024-10-15 14h37.27.132011 +0530,
-150,z,9,3,39,3,,,,,115.69300969998585,,115.68166139995446,115.69300969998585,116.69311990001006,116.69311990001006,116.69311990001006,116.69311990001006,116.69311990001006,117.69342019996839,117.69342019996839,118.19578549999278,z,1,0.4843249000259675,None,192582,001,2024-10-15_14h37.19.056,motor sequence laerning,2024.1.5,None,2024-10-15 14h37.27.132011 +0530,
-50,x,10,0,40,0,,,,,118.20948949997546,,118.19815809995634,118.20948949997546,119.21030999999493,119.21030999999493,119.21030999999493,119.21030999999493,119.21030999999493,120.20983489998616,120.20983489998616,121.0292722999584,x,1,0.8051977999857627,None,192582,001,2024-10-15_14h37.19.056,motor sequence laerning,2024.1.5,None,2024-10-15 14h37.27.132011 +0530,
150,v,10,1,41,1,,,,,121.04332439997233,,121.0311482999823,121.04332439997233,122.0436861999915,122.0436861999915,122.0436861999915,122.0436861999915,122.0436861999915,123.04316179995658,123.04316179995658,123.84511910000583,v,1,0.7908019999740645,None,192582,001,2024-10-15_14h37.19.056,motor sequence laerning,2024.1.5,None,2024-10-15 14h37.27.132011 +0530,
50,c,10,2,42,2,,,,,123.85985869995784,,123.84644749999279,123.85985869995784,124.86014189996058,124.86014189996058,124.86014189996058,124.86014189996058,124.86014189996058,125.8596947999904,125.8596947999904,126.67904479999561,c,1,0.8162726000300609,None,192582,001,2024-10-15_14h37.19.056,motor sequence laerning,2024.1.5,None,2024-10-15 14h37.27.132011 +0530,
-150,z,10,3,43,3,,,,,126.69362499995623,,126.68032849999145,126.69362499995623,127.6930550999823,127.6930550999823,127.6930550999823,127.6930550999823,127.6930550999823,128.69321259995922,128.69321259995922,131.79598130000522,z,1,3.0885899999993853,None,192582,001,2024-10-15_14h37.19.056,motor sequence laerning,2024.1.5,None,2024-10-15 14h37.27.132011 +0530,
-50,x,11,0,44,0,,,,,131.81058379996102,,131.7973046999541,131.81058379996102,132.8108505999553,132.8108505999553,132.8108505999553,132.8108505999553,132.8108505999553,133.80997149995528,133.80997149995528,134.4632072999957,x,1,0.6377832999569364,None,192582,001,2024-10-15_14h37.19.056,motor sequence laerning,2024.1.5,None,2024-10-15 14h37.27.132011 +0530,
150,v,11,1,45,1,,,,,134.4767162000062,,134.46533370000543,134.4767162000062,135.4767564999638,135.4767564999638,135.4767564999638,135.4767564999638,135.4767564999638,136.47664469998563,136.47664469998563,137.14497409999603,v,1,0.6599183999933302,None,192582,001,2024-10-15_14h37.19.056,motor sequence laerning,2024.1.5,None,2024-10-15 14h37.27.132011 +0530,
50,c,11,2,46,2,,,,,137.16063349996693,,137.14624049997656,137.16063349996693,138.1603378999862,138.1603378999862,138.1603378999862,138.1603378999862,138.1603378999862,139.16033280000556,139.16033280000556,139.98087480000686,c,1,0.8148223999887705,None,192582,001,2024-10-15_14h37.19.056,motor sequence laerning,2024.1.5,None,2024-10-15 14h37.27.132011 +0530,
-150,z,11,3,47,3,,,,,139.99363409995567,,139.98245349997887,139.99363409995567,140.99426079995465,140.99426079995465,140.99426079995465,140.99426079995465,140.99426079995465,141.99336530000437,141.99336530000437,142.61316079995595,z,1,0.6074514999636449,None,192582,001,2024-10-15_14h37.19.056,motor sequence laerning,2024.1.5,None,2024-10-15 14h37.27.132011 +0530,
-50,x,12,0,48,0,,,,,142.62674109998625,,142.61496099998476,142.62674109998625,143.62699600000633,143.62699600000633,143.62699600000633,143.62699600000633,143.62699600000633,144.62694409996038,144.62694409996038,145.37931639997987,x,1,0.7484716000035405,None,192582,001,2024-10-15_14h37.19.056,motor sequence laerning,2024.1.5,None,2024-10-15 14h37.27.132011 +0530,
150,v,12,1,49,1,,,,,145.3938727999921,,145.38074829999823,145.3938727999921,146.39404139999533,146.39404139999533,146.39404139999533,146.39404139999533,146.39404139999533,147.39386879996164,147.39386879996164,149.6959235999966,v,1,2.2841063999803737,None,192582,001,2024-10-15_14h37.19.056,motor sequence laerning,2024.1.5,None,2024-10-15 14h37.27.132011 +0530,
50,c,12,2,50,2,,,,,149.71055359998718,,149.69741109997267,149.71055359998718,150.710910099966,150.710910099966,150.710910099966,150.710910099966,150.710910099966,151.71093169995584,151.71093169995584,152.4639073999715,c,1,0.737573100021109,None,192582,001,2024-10-15_14h37.19.056,motor sequence laerning,2024.1.5,None,2024-10-15 14h37.27.132011 +0530,
-150,z,12,3,51,3,,,,,152.47696569998516,,152.46569139999337,152.47696569998516,153.47725930000888,153.47725930000888,153.47725930000888,153.47725930000888,153.47725930000888,154.47725539997919,154.47725539997919,155.17925869999453,z,1,0.6982134999707341,None,192582,001,2024-10-15_14h37.19.056,motor sequence laerning,2024.1.5,None,2024-10-15 14h37.27.132011 +0530,
-50,x,13,0,52,0,,,,,155.19422000000486,,155.18061509996187,155.19422000000486,156.1944120999542,156.1944120999542,156.1944120999542,156.1944120999542,156.1944120999542,157.1943498000037,157.1943498000037,158.51339159999043,x,1,1.3020583000034094,None,192582,001,2024-10-15_14h37.19.056,motor sequence laerning,2024.1.5,None,2024-10-15 14h37.27.132011 +0530,
150,v,13,1,53,1,,,,,158.5271330999676,,158.51506969996262,158.5271330999676,159.5272746999981,159.5272746999981,159.5272746999981,159.5272746999981,159.5272746999981,160.52726880001137,160.52726880001137,161.18013910000445,c,0,0.6442729999544099,None,192582,001,2024-10-15_14h37.19.056,motor sequence laerning,2024.1.5,None,2024-10-15 14h37.27.132011 +0530,
50,c,13,2,54,2,,,,,161.1944349000114,,161.18145109998295,161.1944349000114,162.1944569000043,162.1944569000043,162.1944569000043,162.1944569000043,162.1944569000043,163.19448469998315,163.19448469998315,164.14691199996741,c,1,0.9353648999822326,None,192582,001,2024-10-15_14h37.19.056,motor sequence laerning,2024.1.5,None,2024-10-15 14h37.27.132011 +0530,
-150,z,13,3,55,3,,,,,164.16094989998965,,164.1491458999808,164.16094989998965,165.16132399998605,165.16132399998605,165.16132399998605,165.16132399998605,165.16132399998605,166.16089739999734,166.16089739999734,166.64588829997228,z,1,0.4791403000126593,None,192582,001,2024-10-15_14h37.19.056,motor sequence laerning,2024.1.5,None,2024-10-15 14h37.27.132011 +0530,
-50,x,14,0,56,0,,,,,166.66076439997414,,166.6473704999662,166.66076439997414,167.66100729996106,167.66100729996106,167.66100729996106,167.66100729996106,167.66100729996106,168.66143549996195,168.66143549996195,169.3969350999687,x,1,0.7273526000208221,None,192582,001,2024-10-15_14h37.19.056,motor sequence laerning,2024.1.5,None,2024-10-15 14h37.27.132011 +0530,
150,v,14,1,57,1,,,,,169.4108803999843,,169.3994551000069,169.4108803999843,170.4113846999826,170.4113846999826,170.4113846999826,170.4113846999826,170.4113846999826,171.4110917999642,171.4110917999642,172.17998590000207,v,1,0.7618087999871932,None,192582,001,2024-10-15_14h37.19.056,motor sequence laerning,2024.1.5,None,2024-10-15 14h37.27.132011 +0530,
50,c,14,2,58,2,,,,,172.19439129997045,,172.18171859998256,172.19439129997045,173.19469279999612,173.19469279999612,173.19469279999612,173.19469279999612,173.19469279999612,174.19408619997557,174.19408619997557,174.9470210999716,c,1,0.7364100000122562,None,192582,001,2024-10-15_14h37.19.056,motor sequence laerning,2024.1.5,None,2024-10-15 14h37.27.132011 +0530,
-150,z,14,3,59,3,,,,,174.9609524999978,,174.9487538000103,174.9609524999978,175.96119199995883,175.96119199995883,175.96119199995883,175.96119199995883,175.96119199995883,176.96146359998966,176.96146359998966,177.64769889996387,z,1,0.681999399967026,None,192582,001,2024-10-15_14h37.19.056,motor sequence laerning,2024.1.5,None,2024-10-15 14h37.27.132011 +0530,
-50,x,15,0,60,0,,,,,177.66102459997637,,177.6494203999755,177.66102459997637,178.6615346999606,178.6615346999606,178.6615346999606,178.6615346999606,178.6615346999606,179.66107899998315,179.66107899998315,180.3798963999725,x,1,0.702444700000342,None,192582,001,2024-10-15_14h37.19.056,motor sequence laerning,2024.1.5,None,2024-10-15 14h37.27.132011 +0530,
150,v,15,1,61,1,,,,,180.39483329997165,,180.3815617999644,180.39483329997165,181.39501149998978,181.39501149998978,181.39501149998978,181.39501149998978,181.39501149998978,182.39495899999747,182.39495899999747,183.86367469996912,v,1,1.4656343000242487,None,192582,001,2024-10-15_14h37.19.056,motor sequence laerning,2024.1.5,None,2024-10-15 14h37.27.132011 +0530,
50,c,15,2,62,2,,,,,183.877749199979,,183.86523549997946,183.877749199979,184.87761379999574,184.87761379999574,184.87761379999574,184.87761379999574,184.87761379999574,185.87767949997215,185.87767949997215,186.64651839999715,c,1,0.7584135999786668,None,192582,001,2024-10-15_14h37.19.056,motor sequence laerning,2024.1.5,None,2024-10-15 14h37.27.132011 +0530,
-150,z,15,3,63,3,,,,,186.66139620001195,,186.64804489997914,186.66139620001195,187.66098089999286,187.66098089999286,187.66098089999286,187.66098089999286,187.66098089999286,188.66155019996222,188.66155019996222,189.14540999999736,z,1,0.47527609998360276,None,192582,001,2024-10-15_14h37.19.056,motor sequence laerning,2024.1.5,None,2024-10-15 14h37.27.132011 +0530,
-50,x,16,0,64,0,,,,,189.16106789995683,,189.14628240000457,189.16106789995683,190.161037999962,190.161037999962,190.161037999962,190.161037999962,190.161037999962,191.16101899999194,191.16101899999194,191.863804899971,x,1,0.6996773999999277,None,192582,001,2024-10-15_14h37.19.056,motor sequence laerning,2024.1.5,None,2024-10-15 14h37.27.132011 +0530,
150,v,16,1,65,1,,,,,191.87791489996016,,191.8651802999666,191.87791489996016,192.8781165999826,192.8781165999826,192.8781165999826,192.8781165999826,192.8781165999826,193.87751019996358,193.87751019996358,194.3809168000007,v,1,0.500044499989599,None,192582,001,2024-10-15_14h37.19.056,motor sequence laerning,2024.1.5,None,2024-10-15 14h37.27.132011 +0530,
50,c,16,2,66,2,,,,,194.39493710000534,,194.3824181999662,194.39493710000534,195.39475149998907,195.39475149998907,195.39475149998907,195.39475149998907,195.39475149998907,196.39518389996374,196.39518389996374,197.13057420001132,c,1,0.7204967000288889,None,192582,001,2024-10-15_14h37.19.056,motor sequence laerning,2024.1.5,None,2024-10-15 14h37.27.132011 +0530,
-150,z,16,3,67,3,,,,,197.14492160000373,,197.13251789996866,197.14492160000373,198.14523719996214,198.14523719996214,198.14523719996214,198.14523719996214,198.14523719996214,199.14502029999858,199.14502029999858,199.76235460001044,z,1,0.6091517999884672,None,192582,001,2024-10-15_14h37.19.056,motor sequence laerning,2024.1.5,None,2024-10-15 14h37.27.132011 +0530,
-50,x,17,0,68,0,,,,,199.7780885999673,,199.76356479997048,199.7780885999673,200.7782872999669,200.7782872999669,200.7782872999669,200.7782872999669,200.7782872999669,201.77829699998256,201.77829699998256,202.7481764999684,x,1,0.9566843999782577,None,192582,001,2024-10-15_14h37.19.056,motor sequence laerning,2024.1.5,None,2024-10-15 14h37.27.132011 +0530,
150,v,17,1,69,1,,,,,202.76189560000785,,202.74965879996307,202.76189560000785,203.76216849999037,203.76216849999037,203.76216849999037,203.76216849999037,203.76216849999037,204.76159629999893,204.76159629999893,205.44678150000982,v,1,0.6716600999934599,None,192582,001,2024-10-15_14h37.19.056,motor sequence laerning,2024.1.5,None,2024-10-15 14h37.27.132011 +0530,
50,c,17,2,70,2,,,,,205.4620084000053,,205.44855609996011,205.4620084000053,206.462055699958,206.462055699958,206.462055699958,206.462055699958,206.462055699958,207.4620248999563,207.4620248999563,208.31420570000773,c,1,0.8368980999803171,None,192582,001,2024-10-15_14h37.19.056,motor sequence laerning,2024.1.5,None,2024-10-15 14h37.27.132011 +0530,
-150,z,17,3,71,3,,,,,208.328054099984,,208.315501199977,208.328054099984,209.32840989995748,209.32840989995748,209.32840989995748,209.32840989995748,209.32840989995748,210.32850709999911,210.32850709999911,211.21528730000136,z,1,0.8838996000122279,None,192582,001,2024-10-15_14h37.19.056,motor sequence laerning,2024.1.5,None,2024-10-15 14h37.27.132011 +0530,
-50,x,18,0,72,0,,,,,211.2280305000022,,211.21689199999673,211.2280305000022,212.22849899996072,212.22849899996072,212.22849899996072,212.22849899996072,212.22849899996072,213.22826609999174,213.22826609999174,213.94813719997182,x,1,0.7161126999999397,None,192582,001,2024-10-15_14h37.19.056,motor sequence laerning,2024.1.5,None,2024-10-15 14h37.27.132011 +0530,
150,v,18,1,73,1,,,,,213.96181419998175,,213.94974519999232,213.96181419998175,214.9621211999911,214.9621211999911,214.9621211999911,214.9621211999911,214.9621211999911,215.96180719998665,215.96180719998665,216.6654309000005,v,1,0.7007755999802612,None,192582,001,2024-10-15_14h37.19.056,motor sequence laerning,2024.1.5,None,2024-10-15 14h37.27.132011 +0530,
50,c,18,2,74,2,,,,,216.67820099997334,,216.6671630999772,216.67820099997334,217.6783421,217.6783421,217.6783421,217.6783421,217.6783421,218.67863439995563,218.67863439995563,220.38110009999946,c,1,1.698227999964729,None,192582,001,2024-10-15_14h37.19.056,motor sequence laerning,2024.1.5,None,2024-10-15 14h37.27.132011 +0530,
-150,z,18,3,75,3,,,,,220.39516439998988,,220.38264939998044,220.39516439998988,221.39567359996727,221.39567359996727,221.39567359996727,221.39567359996727,221.39567359996727,222.3957966999733,222.3957966999733,223.14927479997277,z,1,0.7484699999913573,None,192582,001,2024-10-15_14h37.19.056,motor sequence laerning,2024.1.5,None,2024-10-15 14h37.27.132011 +0530,
-50,x,19,0,76,0,,,,,223.1617186999647,,223.1509411999723,223.1617186999647,224.16238579998026,224.16238579998026,224.16238579998026,224.16238579998026,224.16238579998026,225.16241200000513,225.16241200000513,226.08143369999016,x,1,0.9025840999674983,None,192582,001,2024-10-15_14h37.19.056,motor sequence laerning,2024.1.5,None,2024-10-15 14h37.27.132011 +0530,
150,v,19,1,77,1,,,,,226.0958872999763,,226.08311020000838,226.0958872999763,227.0957075000042,227.0957075000042,227.0957075000042,227.0957075000042,227.0957075000042,228.0958837000071,228.0958837000071,228.9307417999953,v,1,0.8301086999708787,None,192582,001,2024-10-15_14h37.19.056,motor sequence laerning,2024.1.5,None,2024-10-15 14h37.27.132011 +0530,
50,c,19,2,78,2,,,,,228.94577409996418,,228.9319889000035,228.94577409996418,229.9454746999545,229.9454746999545,229.9454746999545,229.9454746999545,229.9454746999545,230.94566520000808,230.94566520000808,232.94801379996352,c,1,1.9889936999534257,None,192582,001,2024-10-15_14h37.19.056,motor sequence laerning,2024.1.5,None,2024-10-15 14h37.27.132011 +0530,
-150,z,19,3,79,3,,,,,232.96229049999965,,232.9495379999862,232.96229049999965,233.96248930000002,233.96248930000002,233.96248930000002,233.96248930000002,233.96248930000002,234.96226359996945,234.96226359996945,236.09859209996648,z,1,1.12894269998651,None,192582,001,2024-10-15_14h37.19.056,motor sequence laerning,2024.1.5,None,2024-10-15 14h37.27.132011 +0530,
-50,x,20,0,80,0,,,,,236.11253280000528,,236.1000955000054,236.11253280000528,237.1126504999702,237.1126504999702,237.1126504999702,237.1126504999702,237.1126504999702,238.11260559997754,238.11260559997754,238.76460269995732,x,1,0.6387246000231244,None,192582,001,2024-10-15_14h37.19.056,motor sequence laerning,2024.1.5,None,2024-10-15 14h37.27.132011 +0530,
150,v,20,1,81,1,,,,,238.77879839995876,,238.7663620999665,238.77879839995876,239.7791234999895,239.7791234999895,239.7791234999895,239.7791234999895,239.7791234999895,240.77876409998862,240.77876409998862,241.5479879999766,v,1,0.7595080999890342,None,192582,001,2024-10-15_14h37.19.056,motor sequence laerning,2024.1.5,None,2024-10-15 14h37.27.132011 +0530,
50,c,20,2,82,2,,,,,241.56249189999653,,241.54988909995882,241.56249189999653,242.5623240999994,242.5623240999994,242.5623240999994,242.5623240999994,242.5623240999994,243.56279050000012,243.56279050000012,245.48111549997702,c,1,1.9151390999904834,None,192582,001,2024-10-15_14h37.19.056,motor sequence laerning,2024.1.5,None,2024-10-15 14h37.27.132011 +0530,
-150,z,20,3,83,3,,,,,245.4960088999942,,245.48259899998084,245.4960088999942,246.496386099956,246.496386099956,246.496386099956,246.496386099956,246.496386099956,247.4955811999971,247.4955811999971,248.34785709995776,z,1,0.8430087000015192,None,192582,001,2024-10-15_14h37.19.056,motor sequence laerning,2024.1.5,None,2024-10-15 14h37.27.132011 +0530,
-50,x,21,0,84,0,,,,,248.36269709997578,,248.34966740000527,248.36269709997578,249.36300219997065,249.36300219997065,249.36300219997065,249.36300219997065,249.36300219997065,250.36301619996084,250.36301619996084,251.29829559999052,s,0,0.9174216000246815,None,192582,001,2024-10-15_14h37.19.056,motor sequence laerning,2024.1.5,None,2024-10-15 14h37.27.132011 +0530,
150,v,21,1,85,1,,,,,251.31283419998363,,251.2999431999633,251.31283419998363,252.31302639999194,252.31302639999194,252.31302639999194,252.31302639999194,252.31302639999194,253.31272469996475,253.31272469996475,254.36345389997587,v,1,1.037712300021667,None,192582,001,2024-10-15_14h37.19.056,motor sequence laerning,2024.1.5,None,2024-10-15 14h37.27.132011 +0530,
50,c,21,2,86,2,,,,,254.37869029998546,,254.3642622999614,254.37869029998546,255.37873699999182,255.37873699999182,255.37873699999182,255.37873699999182,255.37873699999182,256.36314839997794,256.36314839997794,257.0477440999821,c,1,0.6674225000315346,None,192582,001,2024-10-15_14h37.19.056,motor sequence laerning,2024.1.5,None,2024-10-15 14h37.27.132011 +0530,
-150,z,21,3,87,3,,,,,257.0631047000061,,257.0492751999991,257.0631047000061,258.06250429997453,258.06250429997453,258.06250429997453,258.06250429997453,258.06250429997453,259.06261079997057,259.06261079997057,259.7972199000069,z,1,0.7320886999950744,None,192582,001,2024-10-15_14h37.19.056,motor sequence laerning,2024.1.5,None,2024-10-15 14h37.27.132011 +0530,
-50,x,22,0,88,0,,,,,259.8124567999621,,259.7989477000083,259.8124567999621,260.81271869997727,260.81271869997727,260.81271869997727,260.81271869997727,260.81271869997727,261.8131627999828,261.8131627999828,262.54822130000684,x,1,0.7300355000188574,None,192582,001,2024-10-15_14h37.19.056,motor sequence laerning,2024.1.5,None,2024-10-15 14h37.27.132011 +0530,
150,v,22,1,89,1,,,,,262.56310579995625,,262.5498329999973,262.56310579995625,263.56308459996944,263.56308459996944,263.56308459996944,263.56308459996944,263.56308459996944,264.562770599965,264.562770599965,265.5971622999641,v,1,1.0176517999498174,None,192582,001,2024-10-15_14h37.19.056,motor sequence laerning,2024.1.5,None,2024-10-15 14h37.27.132011 +0530,
50,c,22,2,90,2,,,,,265.61253079999005,,265.59840590000385,265.61253079999005,266.6130087999627,266.6130087999627,266.6130087999627,266.6130087999627,266.6130087999627,267.6131958999904,267.6131958999904,271.26554719998967,c,1,3.6468757999828085,None,192582,001,2024-10-15_14h37.19.056,motor sequence laerning,2024.1.5,None,2024-10-15 14h37.27.132011 +0530,
-150,z,22,3,91,3,,,,,271.27946599997813,,271.2670800999622,271.27946599997813,272.2795998000074,272.2795998000074,272.2795998000074,272.2795998000074,272.2795998000074,273.27965300000506,273.27965300000506,274.13252049998846,z,1,0.8383589999866672,None,192582,001,2024-10-15_14h37.19.056,motor sequence laerning,2024.1.5,None,2024-10-15 14h37.27.132011 +0530,
-50,x,23,0,92,0,,,,,274.14665289997356,,274.1342225999688,274.14665289997356,275.1470450999914,275.1470450999914,275.1470450999914,275.1470450999914,275.1470450999914,276.1465534999734,276.1465534999734,276.8490473999991,x,1,0.6943211000179872,None,192582,001,2024-10-15_14h37.19.056,motor sequence laerning,2024.1.5,None,2024-10-15 14h37.27.132011 +0530,
150,v,23,1,93,1,,,,,276.86309349996736,,276.85055539995665,276.86309349996736,277.86354970000684,277.86354970000684,277.86354970000684,277.86354970000684,277.86354970000684,278.86321409995435,278.86321409995435,279.43153259996325,v,1,0.5632115000043996,None,192582,001,2024-10-15_14h37.19.056,motor sequence laerning,2024.1.5,None,2024-10-15 14h37.27.132011 +0530,
50,c,23,2,94,2,,,,,279.4474763000035,,279.43278019997524,279.4474763000035,280.4469356999616,280.4469356999616,280.4469356999616,280.4469356999616,280.4469356999616,281.4466637999867,281.4466637999867,282.1497401999659,c,1,0.6924228999996558,None,192582,001,2024-10-15_14h37.19.056,motor sequence laerning,2024.1.5,None,2024-10-15 14h37.27.132011 +0530,
-150,z,23,3,95,3,,,,,282.16334149998147,,282.1514446999645,282.16334149998147,283.1637658000109,283.1637658000109,283.1637658000109,283.1637658000109,283.1637658000109,284.1634109999868,284.1634109999868,284.88262839999516,x,0,0.7052927000331692,None,192582,001,2024-10-15_14h37.19.056,motor sequence laerning,2024.1.5,None,2024-10-15 14h37.27.132011 +0530,
-50,x,24,0,96,0,,,,,284.8970250999555,,284.8843673999654,284.8970250999555,285.89694189996226,285.89694189996226,285.89694189996226,285.89694189996226,285.89694189996226,286.8970506999758,286.8970506999758,287.68278899998404,x,1,0.7723855000222102,None,192582,001,2024-10-15_14h37.19.056,motor sequence laerning,2024.1.5,None,2024-10-15 14h37.27.132011 +0530,
150,v,24,1,97,1,,,,,287.69713039998896,,287.68455060000997,287.69713039998896,288.69685229996685,288.69685229996685,288.69685229996685,288.69685229996685,288.69685229996685,289.6966645999928,289.6966645999928,290.35006799997063,v,1,0.6423866999684833,None,192582,001,2024-10-15_14h37.19.056,motor sequence laerning,2024.1.5,None,2024-10-15 14h37.27.132011 +0530,
50,c,24,2,98,2,,,,,290.3635381999775,,290.3518348999787,290.3635381999775,291.36381459998665,291.36381459998665,291.36381459998665,291.36381459998665,291.36381459998665,292.3637108000112,292.3637108000112,293.0652753000031,c,1,0.6866066999500617,None,192582,001,2024-10-15_14h37.19.056,motor sequence laerning,2024.1.5,None,2024-10-15 14h37.27.132011 +0530,
-150,z,24,3,99,3,,,,,293.080182900012,,293.0665950999828,293.080182900012,294.07971889997134,294.07971889997134,294.07971889997134,294.07971889997134,294.07971889997134,295.0802240999765,295.0802240999765,295.98251149995485,z,1,0.8956795000121929,None,192582,001,2024-10-15_14h37.19.056,motor sequence laerning,2024.1.5,None,2024-10-15 14h37.27.132011 +0530,
-50,x,25,0,100,0,,,,,295.99706229998264,,295.9841247999575,295.99706229998264,296.99738279997837,296.99738279997837,296.99738279997837,296.99738279997837,296.99738279997837,297.9967672000057,297.9967672000057,298.88113789999625,x,1,0.8704515999997966,None,192582,001,2024-10-15_14h37.19.056,motor sequence laerning,2024.1.5,None,2024-10-15 14h37.27.132011 +0530,
150,v,25,1,101,1,,,,,298.8966020999942,,298.8823122999747,298.8966020999942,299.8975580999977,299.8975580999977,299.8975580999977,299.8975580999977,299.8975580999977,300.89710359997116,300.89710359997116,302.94807250000304,v,1,2.047274100012146,None,192582,001,2024-10-15_14h37.19.056,motor sequence laerning,2024.1.5,None,2024-10-15 14h37.27.132011 +0530,
50,c,25,2,102,2,,,,,302.9633410999668,,302.9493240999873,302.9633410999668,303.9639166999841,303.9639166999841,303.9639166999841,303.9639166999841,303.9639166999841,304.9639171999879,304.9639171999879,305.81697270000586,c,1,0.848377000016626,None,192582,001,2024-10-15_14h37.19.056,motor sequence laerning,2024.1.5,None,2024-10-15 14h37.27.132011 +0530,
-150,z,25,3,103,3,,,,,305.829984699958,,305.81844820000697,305.829984699958,306.8302980999579,306.8302980999579,306.8302980999579,306.8302980999579,306.8302980999579,307.830043199996,307.830043199996,308.53225419996306,z,1,0.6853954000398517,None,192582,001,2024-10-15_14h37.19.056,motor sequence laerning,2024.1.5,None,2024-10-15 14h37.27.132011 +0530,
-50,x,26,0,104,0,,,,,308.5475563000073,,308.5338235999807,308.5475563000073,309.54755939997267,309.54755939997267,309.54755939997267,309.54755939997267,309.54755939997267,310.5472652000026,310.5472652000026,311.365912499954,x,1,0.8157356000156142,None,192582,001,2024-10-15_14h37.19.056,motor sequence laerning,2024.1.5,None,2024-10-15 14h37.27.132011 +0530,
150,v,26,1,105,1,,,,,311.3803909999551,,311.36738529999275,311.3803909999551,312.38033249997534,312.38033249997534,312.38033249997534,312.38033249997534,312.38033249997534,313.38050939998357,313.38050939998357,314.3829249999835,v,1,0.9961971999728121,None,192582,001,2024-10-15_14h37.19.056,motor sequence laerning,2024.1.5,None,2024-10-15 14h37.27.132011 +0530,
50,c,26,2,106,2,,,,,314.39746269996976,,314.3848702000105,314.39746269996976,315.3977993999724,315.3977993999724,315.3977993999724,315.3977993999724,315.3977993999724,316.3974116999889,316.3974116999889,317.18339879997075,c,1,0.7722711999667808,None,192582,001,2024-10-15_14h37.19.056,motor sequence laerning,2024.1.5,None,2024-10-15 14h37.27.132011 +0530,
-150,z,26,3,107,3,,,,,317.1975988000049,,317.18509939999785,317.1975988000049,318.197409699962,318.197409699962,318.197409699962,318.197409699962,318.197409699962,319.19802690000506,319.19802690000506,320.13171849999344,z,1,0.9177865000092424,None,192582,001,2024-10-15_14h37.19.056,motor sequence laerning,2024.1.5,None,2024-10-15 14h37.27.132011 +0530,
-50,x,27,0,108,0,,,,,320.14776359999087,,320.1330986999674,320.14776359999087,321.14766529999906,321.14766529999906,321.14766529999906,321.14766529999906,321.14766529999906,322.1479536999832,322.1479536999832,323.06774809997296,x,1,0.9065335000050254,None,192582,001,2024-10-15_14h37.19.056,motor sequence laerning,2024.1.5,None,2024-10-15 14h37.27.132011 +0530,
150,v,27,1,109,1,,,,,323.080797099974,,323.06948259996716,323.080797099974,324.0808826999855,324.0808826999855,324.0808826999855,324.0808826999855,324.0808826999855,325.08030539995525,325.08030539995525,326.56769870000426,v,1,1.4836437000194564,None,192582,001,2024-10-15_14h37.19.056,motor sequence laerning,2024.1.5,None,2024-10-15 14h37.27.132011 +0530,
50,c,27,2,110,2,,,,,326.5806721000117,,326.56939929997316,326.5806721000117,327.5809424999752,327.5809424999752,327.5809424999752,327.5809424999752,327.5809424999752,328.5807421999634,328.5807421999634,329.31774639996,c,1,0.7344254999770783,None,192582,001,2024-10-15_14h37.19.056,motor sequence laerning,2024.1.5,None,2024-10-15 14h37.27.132011 +0530,
-150,z,27,3,111,3,,,,,329.3306925999932,,329.31942549999803,329.3306925999932,330.33089939999627,330.33089939999627,330.33089939999627,330.33089939999627,330.33089939999627,331.33094079996226,331.33094079996226,331.86763569997856,z,1,0.5341917999903671,None,192582,001,2024-10-15_14h37.19.056,motor sequence laerning,2024.1.5,None,2024-10-15 14h37.27.132011 +0530,
-50,x,28,0,112,0,,,,,331.88073999999324,,331.8694383999682,331.88073999999324,332.8805636999896,332.8805636999896,332.8805636999896,332.8805636999896,332.8805636999896,333.88109370000893,333.88109370000893,335.76742609997746,x,1,1.8779250000370666,None,192582,001,2024-10-15_14h37.19.056,motor sequence laerning,2024.1.5,None,2024-10-15 14h37.27.132011 +0530,
150,v,28,1,113,1,,,,,335.7806847000029,,335.76907290000236,335.7806847000029,336.7811792999855,336.7811792999855,336.7811792999855,336.7811792999855,336.7811792999855,337.7810978000052,337.7810978000052,338.73328119999496,v,1,0.9496804000227712,None,192582,001,2024-10-15_14h37.19.056,motor sequence laerning,2024.1.5,None,2024-10-15 14h37.27.132011 +0530,
50,c,28,2,114,2,,,,,338.74777949997224,,338.7349494000082,338.74777949997224,339.7480821000063,339.7480821000063,339.7480821000063,339.7480821000063,339.7480821000063,340.74846199998865,340.74846199998865,341.6352613999625,c,1,0.8761698000016622,None,192582,001,2024-10-15_14h37.19.056,motor sequence laerning,2024.1.5,None,2024-10-15 14h37.27.132011 +0530,
-150,z,28,3,115,3,,,,,341.64776239998173,,341.63680919999024,341.64776239998173,342.6483456999995,342.6483456999995,342.6483456999995,342.6483456999995,342.6483456999995,343.64803889999166,343.64803889999166,344.4339127999847,z,1,0.7784562000306323,None,192582,001,2024-10-15_14h37.19.056,motor sequence laerning,2024.1.5,None,2024-10-15 14h37.27.132011 +0530,
-50,x,29,0,116,0,,,,,344.4482396999956,,344.4351977999904,344.4482396999956,345.4483321000007,345.4483321000007,345.4483321000007,345.4483321000007,345.4483321000007,346.44821219996084,346.44821219996084,347.2174875999917,x,1,0.7648791000247002,None,192582,001,2024-10-15_14h37.19.056,motor sequence laerning,2024.1.5,None,2024-10-15 14h37.27.132011 +0530,
150,v,29,1,117,1,,,,,347.23097440000856,,347.2193499999703,347.23097440000856,348.2313031000085,348.2313031000085,348.2313031000085,348.2313031000085,348.2313031000085,349.23137990001123,349.23137990001123,350.0008754999726,v,1,0.7656350999604911,None,192582,001,2024-10-15_14h37.19.056,motor sequence laerning,2024.1.5,None,2024-10-15 14h37.27.132011 +0530,
50,c,29,2,118,2,,,,,350.0150259999791,,350.00253539998084,350.0150259999791,351.0149046999868,351.0149046999868,351.0149046999868,351.0149046999868,351.0149046999868,352.0149693999556,352.0149693999556,352.78268939995905,c,1,0.7626786999753676,None,192582,001,2024-10-15_14h37.19.056,motor sequence laerning,2024.1.5,None,2024-10-15 14h37.27.132011 +0530,
-150,z,29,3,119,3,,,,,352.79845800000476,,352.7839067999739,352.79845800000476,353.7985775999841,353.7985775999841,353.7985775999841,353.7985775999841,353.7985775999841,354.79828649997944,354.79828649997944,357.16707500000484,z,1,2.352138800022658,None,192582,001,2024-10-15_14h37.19.056,motor sequence laerning,2024.1.5,None,2024-10-15 14h37.27.132011 +0530,
-50,x,30,0,120,0,,,,,357.18133309995756,,357.1687060999684,357.18133309995756,358.1817502999911,358.1817502999911,358.1817502999911,358.1817502999911,358.1817502999911,359.1811748999753,359.1811748999753,362.0839406999876,x,1,2.8987410000409,None,192582,001,2024-10-15_14h37.19.056,motor sequence laerning,2024.1.5,None,2024-10-15 14h37.27.132011 +0530,
150,v,30,1,121,1,,,,,362.0982029999723,,362.08585739997216,362.0982029999723,363.0981258999673,363.0981258999673,363.0981258999673,363.0981258999673,363.0981258999673,364.09863129997393,364.09863129997393,367.31678049999755,v,1,3.2100551000330597,None,192582,001,2024-10-15_14h37.19.056,motor sequence laerning,2024.1.5,None,2024-10-15 14h37.27.132011 +0530,
50,c,30,2,122,2,,,,,367.33157159999246,,367.3184487000108,367.33157159999246,368.3318634000025,368.3318634000025,368.3318634000025,368.3318634000025,368.3318634000025,369.3315251999884,369.3315251999884,371.3843371999683,c,1,2.043999999994412,None,192582,001,2024-10-15_14h37.19.056,motor sequence laerning,2024.1.5,None,2024-10-15 14h37.27.132011 +0530,
-150,z,30,3,123,3,,,,,371.398641399981,,371.3859813999734,371.398641399981,372.39881409995724,372.39881409995724,372.39881409995724,372.39881409995724,372.39881409995724,373.3988071999629,373.3988071999629,374.70023929997114,z,1,1.296592500002589,None,192582,001,2024-10-15_14h37.19.056,motor sequence laerning,2024.1.5,None,2024-10-15 14h37.27.132011 +0530,
-50,x,31,0,124,0,,,,,374.7156116999686,,374.7015263999929,374.7156116999686,375.7153730999562,375.7153730999562,375.7153730999562,375.7153730999562,375.7153730999562,376.7151182999951,376.7151182999951,377.5007316999836,x,1,0.7780229999916628,None,192582,001,2024-10-15_14h37.19.056,motor sequence laerning,2024.1.5,None,2024-10-15 14h37.27.132011 +0530,
150,v,31,1,125,1,,,,,377.5154954000027,,377.5020514999633,377.5154954000027,378.5154565999983,378.5154565999983,378.5154565999983,378.5154565999983,378.5154565999983,379.5153618999757,379.5153618999757,380.36675559997093,v,1,0.834540499956347,None,192582,001,2024-10-15_14h37.19.056,motor sequence laerning,2024.1.5,None,2024-10-15 14h37.27.132011 +0530,
50,c,31,2,126,2,,,,,380.3819844999816,,380.36838349996833,380.3819844999816,381.38204239995684,381.38204239995684,381.38204239995684,381.38204239995684,381.38204239995684,382.38228169997456,382.38228169997456,383.284269900003,c,1,0.8913258000393398,None,192582,001,2024-10-15_14h37.19.056,motor sequence laerning,2024.1.5,None,2024-10-15 14h37.27.132011 +0530,
-150,z,31,3,127,3,,,,,383.29902799997944,,383.2859341999865,383.29902799997944,384.2991957999766,384.2991957999766,384.2991957999766,384.2991957999766,384.2991957999766,385.2992423999822,385.2992423999822,386.86760729999514,z,1,1.551370200002566,None,192582,001,2024-10-15_14h37.19.056,motor sequence laerning,2024.1.5,None,2024-10-15 14h37.27.132011 +0530,
-50,x,32,0,128,0,,,,,386.88197769998806,,386.86912059999304,386.88197769998806,387.88228149997303,387.88228149997303,387.88228149997303,387.88228149997303,387.88228149997303,388.88221079995856,388.88221079995856,390.6506633000099,x,1,1.7599752999958582,None,192582,001,2024-10-15_14h37.19.056,motor sequence laerning,2024.1.5,None,2024-10-15 14h37.27.132011 +0530,
150,v,32,1,129,1,,,,,390.66576579998946,,390.652117599966,390.66576579998946,391.66597929998534,391.66597929998534,391.66597929998534,391.66597929998534,391.66597929998534,392.66624469996896,392.66624469996896,394.78500400000485,v,1,2.1117180000292137,None,192582,001,2024-10-15_14h37.19.056,motor sequence laerning,2024.1.5,None,2024-10-15 14h37.27.132011 +0530,
50,c,32,2,130,2,,,,,394.7993333999766,,394.7864668999682,394.7993333999766,395.79936489998363,395.79936489998363,395.79936489998363,395.79936489998363,395.79936489998363,396.7992368999985,396.7992368999985,397.73474200000055,c,1,0.918735800019931,None,192582,001,2024-10-15_14h37.19.056,motor sequence laerning,2024.1.5,None,2024-10-15 14h37.27.132011 +0530,
-150,z,32,3,131,3,,,,,397.74937219999265,,397.7361405999982,397.74937219999265,398.74961769999936,398.74961769999936,398.74961769999936,398.74961769999936,398.74961769999936,399.74951349996263,399.74951349996263,400.485070499999,z,1,0.7317820000462234,None,192582,001,2024-10-15_14h37.19.056,motor sequence laerning,2024.1.5,None,2024-10-15 14h37.27.132011 +0530,
-50,x,33,0,132,0,,,,,400.49893780000275,,400.4866999000078,400.49893780000275,401.4990261999774,401.4990261999774,401.4990261999774,401.4990261999774,401.4990261999774,402.4993922999711,402.4993922999711,403.41897479997715,x,1,0.9123844999703579,None,192582,001,2024-10-15_14h37.19.056,motor sequence laerning,2024.1.5,None,2024-10-15 14h37.27.132011 +0530,
150,v,33,1,133,1,,,,,403.4326121999766,,403.42135949997464,403.4326121999766,404.4325147999916,404.4325147999916,404.4325147999916,404.4325147999916,404.4325147999916,405.4325843999977,405.4325843999977,406.33469940000214,v,1,0.8849646000307985,None,192582,001,2024-10-15_14h37.19.056,motor sequence laerning,2024.1.5,None,2024-10-15 14h37.27.132011 +0530,
50,c,33,2,134,2,,,,,406.3493138999911,,406.3362737999996,406.3493138999911,407.349850700004,407.349850700004,407.349850700004,407.349850700004,407.349850700004,408.34966800000984,408.34966800000984,409.2688075999613,c,1,0.9032264999696054,None,192582,001,2024-10-15_14h37.19.056,motor sequence laerning,2024.1.5,None,2024-10-15 14h37.27.132011 +0530,
-150,z,33,3,135,3,,,,,409.28232509997906,,409.27035129995784,409.28232509997906,410.2825174999889,410.2825174999889,410.2825174999889,410.2825174999889,410.2825174999889,411.28236369998194,411.28236369998194,412.1184355999576,z,1,0.8303391999797896,None,192582,001,2024-10-15_14h37.19.056,motor sequence laerning,2024.1.5,None,2024-10-15 14h37.27.132011 +0530,
-50,x,34,0,136,0,,,,,412.1326994000119,,412.1201954999706,412.1326994000119,413.13279090001015,413.13279090001015,413.13279090001015,413.13279090001015,413.13279090001015,414.1325371999992,414.1325371999992,416.6685171999852,x,1,2.5321430999902077,None,192582,001,2024-10-15_14h37.19.056,motor sequence laerning,2024.1.5,None,2024-10-15 14h37.27.132011 +0530,
150,v,34,1,137,1,,,,,416.6824237999972,,416.670354700007,416.6824237999972,417.6829235999612,417.6829235999612,417.6829235999612,417.6829235999612,417.6829235999612,418.68231090001063,418.68231090001063,419.4515769999707,v,1,0.7664065000135452,None,192582,001,2024-10-15_14h37.19.056,motor sequence laerning,2024.1.5,None,2024-10-15 14h37.27.132011 +0530,
50,c,34,2,138,2,,,,,419.46605759998783,,419.45316209999146,419.46605759998783,420.46666529995855,420.46666529995855,420.46666529995855,420.46666529995855,420.46666529995855,421.4662157999701,421.4662157999701,422.28517990000546,c,1,0.8082732000038959,None,192582,001,2024-10-15_14h37.19.056,motor sequence laerning,2024.1.5,None,2024-10-15 14h37.27.132011 +0530,
-150,z,34,3,139,3,,,,,422.2994374000118,,422.2868886999786,422.2994374000118,423.3004093999625,423.3004093999625,423.3004093999625,423.3004093999625,423.3004093999625,424.29991519998293,424.29991519998293,424.96987739996985,z,1,0.6526408999925479,None,192582,001,2024-10-15_14h37.19.056,motor sequence laerning,2024.1.5,None,2024-10-15 14h37.27.132011 +0530,
-50,x,35,0,140,0,,,,,424.98288510000566,,424.97135539999,424.98288510000566,425.9829496999737,425.9829496999737,425.9829496999737,425.9829496999737,425.9829496999737,426.98294069996336,426.98294069996336,427.6517612999887,x,1,0.665020199958235,None,192582,001,2024-10-15_14h37.19.056,motor sequence laerning,2024.1.5,None,2024-10-15 14h37.27.132011 +0530,
150,v,35,1,141,1,,,,,427.6661540999776,,427.65392929996597,427.6661540999776,428.6665444999817,428.6665444999817,428.6665444999817,428.6665444999817,428.6665444999817,429.66670709999744,429.66670709999744,430.5195242000045,v,1,0.8454991000471637,None,192582,001,2024-10-15_14h37.19.056,motor sequence laerning,2024.1.5,None,2024-10-15 14h37.27.132011 +0530,
50,c,35,2,142,2,,,,,430.53268760000356,,430.5212462999625,430.53268760000356,431.53309659997467,431.53309659997467,431.53309659997467,431.53309659997467,431.53309659997467,432.53312249999726,432.53312249999726,433.4857792999828,c,1,0.9352668999927118,None,192582,001,2024-10-15_14h37.19.056,motor sequence laerning,2024.1.5,None,2024-10-15 14h37.27.132011 +0530,
-150,z,35,3,143,3,,,,,433.5001430999837,,433.4872647000011,433.5001430999837,434.50007670000196,434.50007670000196,434.50007670000196,434.50007670000196,434.50007670000196,435.50036439998075,435.50036439998075,436.40223289997084,z,1,0.88773499999661,None,192582,001,2024-10-15_14h37.19.056,motor sequence laerning,2024.1.5,None,2024-10-15 14h37.27.132011 +0530,
-50,x,36,0,144,0,,,,,436.4169345999835,,436.4039069999708,436.4169345999835,437.4170858999714,437.4170858999714,437.4170858999714,437.4170858999714,437.4170858999714,438.41712050000206,438.41712050000206,439.12004730000626,x,1,0.6980846999795176,None,192582,001,2024-10-15_14h37.19.056,motor sequence laerning,2024.1.5,None,2024-10-15 14h37.27.132011 +0530,
150,v,36,1,145,1,,,,,439.1330781999859,,439.1217900000047,439.1330781999859,440.1334103999543,440.1334103999543,440.1334103999543,440.1334103999543,440.1334103999543,441.1333583999658,441.1333583999658,441.98586509999586,v,1,0.8357429999741726,None,192582,001,2024-10-15_14h37.19.056,motor sequence laerning,2024.1.5,None,2024-10-15 14h37.27.132011 +0530,
50,c,36,2,146,2,,,,,441.99984379997477,,441.9873917999794,441.99984379997477,443.00038310000673,443.00038310000673,443.00038310000673,443.00038310000673,443.00038310000673,443.99996109999483,443.99996109999483,445.63534559996333,c,1,1.6193403999786824,None,192582,001,2024-10-15_14h37.19.056,motor sequence laerning,2024.1.5,None,2024-10-15 14h37.27.132011 +0530,
-150,z,36,3,147,3,,,,,445.6500847999705,,445.6370610999875,445.6500847999705,446.65034079999896,446.65034079999896,446.65034079999896,446.65034079999896,446.65034079999896,447.65025780000724,447.65025780000724,448.51952929998515,z,1,0.8527748000342399,None,192582,001,2024-10-15_14h37.19.056,motor sequence laerning,2024.1.5,None,2024-10-15 14h37.27.132011 +0530,
-50,x,37,0,148,0,,,,,448.5334786999738,,448.52099779999116,448.5334786999738,449.53366949997144,449.53366949997144,449.53366949997144,449.53366949997144,449.53366949997144,450.5336467999732,450.5336467999732,451.4689497000072,x,1,0.9267887999885716,None,192582,001,2024-10-15_14h37.19.056,motor sequence laerning,2024.1.5,None,2024-10-15 14h37.27.132011 +0530,
150,v,37,1,149,1,,,,,451.4834593999549,,451.4703421999584,451.4834593999549,452.4835049000103,452.4835049000103,452.4835049000103,452.4835049000103,452.4835049000103,453.48360360000515,453.48360360000515,454.41856419999385,v,1,0.9230526000028476,None,192582,001,2024-10-15_14h37.19.056,motor sequence laerning,2024.1.5,None,2024-10-15 14h37.27.132011 +0530,
50,c,37,2,150,2,,,,,454.4334286999656,,454.4200129999663,454.4334286999656,455.43323659995804,455.43323659995804,455.43323659995804,455.43323659995804,455.43323659995804,456.4334294999717,456.4334294999717,457.26920539996354,c,1,0.8330634000012651,None,192582,001,2024-10-15_14h37.19.056,motor sequence laerning,2024.1.5,None,2024-10-15 14h37.27.132011 +0530,
-150,z,37,3,151,3,,,,,457.28344359999755,,457.2712884999928,457.28344359999755,458.28372849995503,458.28372849995503,458.28372849995503,458.28372849995503,458.28372849995503,459.28357939998386,459.28357939998386,460.1191499999841,z,1,0.8201750000007451,None,192582,001,2024-10-15_14h37.19.056,motor sequence laerning,2024.1.5,None,2024-10-15 14h37.27.132011 +0530,
-50,x,38,0,152,0,,,,,460.1334605999873,,460.12058369995793,460.1334605999873,461.13380459998734,461.13380459998734,461.13380459998734,461.13380459998734,461.13380459998734,462.13387669995427,462.13387669995427,464.4030373999849,x,1,2.2656355000217445,None,192582,001,2024-10-15_14h37.19.056,motor sequence laerning,2024.1.5,None,2024-10-15 14h37.27.132011 +0530,
150,v,38,1,153,1,,,,,464.41717359999893,,464.40456609998364,464.41717359999893,465.41743999999017,465.41743999999017,465.41743999999017,465.41743999999017,465.41743999999017,466.4168401999632,466.4168401999632,467.153627599997,v,1,0.7328585000359453,None,192582,001,2024-10-15_14h37.19.056,motor sequence laerning,2024.1.5,None,2024-10-15 14h37.27.132011 +0530,
50,c,38,2,154,2,,,,,467.16728659998626,,467.15612259996124,467.16728659998626,468.1669460000121,468.1669460000121,468.1669460000121,468.1669460000121,468.1669460000121,469.1668983999989,469.1668983999989,470.4189255000092,c,1,1.2420296999625862,None,192582,001,2024-10-15_14h37.19.056,motor sequence laerning,2024.1.5,None,2024-10-15 14h37.27.132011 +0530,
-150,z,38,3,155,3,,,,,470.4337099000113,,470.42068579996703,470.4337099000113,471.4341271999874,471.4341271999874,471.4341271999874,471.4341271999874,471.4341271999874,472.43422799999826,472.43422799999826,473.25415970000904,z,1,0.8098458999884315,None,192582,001,2024-10-15_14h37.19.056,motor sequence laerning,2024.1.5,None,2024-10-15 14h37.27.132011 +0530,
-50,x,39,0,156,0,,,,,473.2674685000093,,473.2558407000033,473.2674685000093,474.2677665000083,474.2677665000083,474.2677665000083,474.2677665000083,474.2677665000083,475.2674318999634,475.2674318999634,476.70207110000774,x,1,1.4186004999792203,None,192582,001,2024-10-15_14h37.19.056,motor sequence laerning,2024.1.5,None,2024-10-15 14h37.27.132011 +0530,
150,v,39,1,157,1,,,,,476.7175026999903,,476.7033325000084,476.7175026999903,477.71767459996045,477.71767459996045,477.71767459996045,477.71767459996045,477.71767459996045,478.71756540000206,478.71756540000206,479.7694319000002,v,1,1.0438376999809407,None,192582,001,2024-10-15_14h37.19.056,motor sequence laerning,2024.1.5,None,2024-10-15 14h37.27.132011 +0530,
50,c,39,2,158,2,,,,,479.78407329996116,,479.77087829995435,479.78407329996116,480.78406739997445,480.78406739997445,480.78406739997445,480.78406739997445,480.78406739997445,481.7840076999855,481.7840076999855,482.6033491999842,c,1,0.8158427000162192,None,192582,001,2024-10-15_14h37.19.056,motor sequence laerning,2024.1.5,None,2024-10-15 14h37.27.132011 +0530,
-150,z,39,3,159,3,,,,,482.61784819996683,,482.604790399957,482.61784819996683,483.6179375000065,483.6179375000065,483.6179375000065,483.6179375000065,483.6179375000065,484.61782769998536,484.61782769998536,485.55290969996713,z,1,0.9206065000034869,None,192582,001,2024-10-15_14h37.19.056,motor sequence laerning,2024.1.5,None,2024-10-15 14h37.27.132011 +0530,
-50,x,40,0,160,0,,,,,485.5677827000036,,485.5546568999998,485.5677827000036,486.5676997000119,486.5676997000119,486.5676997000119,486.5676997000119,486.5676997000119,487.56796369998483,487.56796369998483,488.38601389998803,x,1,0.8160888999700546,None,192582,001,2024-10-15_14h37.19.056,motor sequence laerning,2024.1.5,None,2024-10-15 14h37.27.132011 +0530,
150,v,40,1,161,1,,,,,488.4009626999614,,488.38778689998435,488.4009626999614,489.4011612999602,489.4011612999602,489.4011612999602,489.4011612999602,489.4011612999602,490.40083549998235,490.40083549998235,491.152196799987,v,1,0.743348199990578,None,192582,001,2024-10-15_14h37.19.056,motor sequence laerning,2024.1.5,None,2024-10-15 14h37.27.132011 +0530,
50,c,40,2,162,2,,,,,491.1674333999981,,491.15307169995504,491.1674333999981,492.1674567000009,492.1674567000009,492.1674567000009,492.1674567000009,492.1674567000009,493.1679810999776,493.1679810999776,494.4708905000007,c,1,1.2999528999789618,None,192582,001,2024-10-15_14h37.19.056,motor sequence laerning,2024.1.5,None,2024-10-15 14h37.27.132011 +0530,
-150,z,40,3,163,3,,,,,494.4841907999944,,494.4725773999817,494.4841907999944,495.4842994000064,495.4842994000064,495.4842994000064,495.4842994000064,495.4842994000064,496.4843782999669,496.4843782999669,496.88791629998013,z,1,0.40047280001454055,None,192582,001,2024-10-15_14h37.19.056,motor sequence laerning,2024.1.5,None,2024-10-15 14h37.27.132011 +0530,
-50,x,41,0,164,0,,,,,496.90148150001187,,496.8895137999789,496.90148150001187,497.90139559999807,497.90139559999807,497.90139559999807,497.90139559999807,497.90139559999807,498.90137209999375,498.90137209999375,499.45398769999156,x,1,0.538773600012064,None,192582,001,2024-10-15_14h37.19.056,motor sequence laerning,2024.1.5,None,2024-10-15 14h37.27.132011 +0530,
150,v,41,1,165,1,,,,,499.46796719997656,,499.4552765999688,499.46796719997656,500.46772939997027,500.46772939997027,500.46772939997027,500.46772939997027,500.46772939997027,501.4680231999955,501.4680231999955,502.2203266999568,v,1,0.7469065000186674,None,192582,001,2024-10-15_14h37.19.056,motor sequence laerning,2024.1.5,None,2024-10-15 14h37.27.132011 +0530,
50,c,41,2,166,2,,,,,502.2344451000099,,502.22164599999087,502.2344451000099,503.23444470000686,503.23444470000686,503.23444470000686,503.23444470000686,503.23444470000686,504.23432359995786,504.23432359995786,505.07053689996246,c,1,0.8224333999678493,None,192582,001,2024-10-15_14h37.19.056,motor sequence laerning,2024.1.5,None,2024-10-15 14h37.27.132011 +0530,
-150,z,41,3,167,3,,,,,505.0843498999602,,505.07222460000776,505.0843498999602,506.08482819999335,506.08482819999335,506.08482819999335,506.08482819999335,506.08482819999335,507.08473559998674,507.08473559998674,507.5376244999934,z,1,0.44653750001452863,None,192582,001,2024-10-15_14h37.19.056,motor sequence laerning,2024.1.5,None,2024-10-15 14h37.27.132011 +0530,
-50,x,42,0,168,0,,,,,507.5513144999859,,507.53905119997216,507.5513144999859,508.5514517999836,508.5514517999836,508.5514517999836,508.5514517999836,508.5514517999836,509.5514517999836,509.5514517999836,509.9200487000053,x,1,0.365328399988357,None,192582,001,2024-10-15_14h37.19.056,motor sequence laerning,2024.1.5,None,2024-10-15 14h37.27.132011 +0530,
150,v,42,1,169,1,,,,,509.93425359996036,,509.9221452999627,509.93425359996036,510.9348245000001,510.9348245000001,510.9348245000001,510.9348245000001,510.9348245000001,511.93467039999086,511.93467039999086,512.4712058999576,v,1,0.5267923999927007,None,192582,001,2024-10-15_14h37.19.056,motor sequence laerning,2024.1.5,None,2024-10-15 14h37.27.132011 +0530,
50,c,42,2,170,2,,,,,512.4848730000085,,512.4727701999946,512.4848730000085,513.4849129999639,513.4849129999639,513.4849129999639,513.4849129999639,513.4849129999639,514.4846375999623,514.4846375999623,515.3705309999641,c,1,0.8739851000136696,None,192582,001,2024-10-15_14h37.19.056,motor sequence laerning,2024.1.5,None,2024-10-15 14h37.27.132011 +0530,
-150,z,42,3,171,3,,,,,515.3848152999999,,515.372219199955,515.3848152999999,516.3845684999833,516.3845684999833,516.3845684999833,516.3845684999833,516.3845684999833,517.3850090999622,517.3850090999622,518.0371486999793,z,1,0.6410686000017449,None,192582,001,2024-10-15_14h37.19.056,motor sequence laerning,2024.1.5,None,2024-10-15 14h37.27.132011 +0530,
-50,x,43,0,172,0,,,,,518.0519505999982,,518.0387223999714,518.0519505999982,519.0520606999635,519.0520606999635,519.0520606999635,519.0520606999635,519.0520606999635,520.0523407000001,520.0523407000001,521.0036197999725,x,1,0.9440279999980703,None,192582,001,2024-10-15_14h37.19.056,motor sequence laerning,2024.1.5,None,2024-10-15 14h37.27.132011 +0530,
150,v,43,1,173,1,,,,,521.0185941999662,,521.0049329999601,521.0185941999662,522.0181484000059,522.0181484000059,522.0181484000059,522.0181484000059,522.0181484000059,523.0186247999663,523.0186247999663,523.8194030000013,v,1,0.7852350999601185,None,192582,001,2024-10-15_14h37.19.056,motor sequence laerning,2024.1.5,None,2024-10-15 14h37.27.132011 +0530,
50,c,43,2,174,2,,,,,523.8344822999788,,523.8206904999679,523.8344822999788,524.8351868999889,524.8351868999889,524.8351868999889,524.8351868999889,524.8351868999889,525.8348801999819,525.8348801999819,527.0197571999743,c,1,1.1744819999439642,None,192582,001,2024-10-15_14h37.19.056,motor sequence laerning,2024.1.5,None,2024-10-15 14h37.27.132011 +0530,
-150,z,43,3,175,3,,,,,527.0346244999673,,527.0213125000009,527.0346244999673,528.0349465999752,528.0349465999752,528.0349465999752,528.0349465999752,528.0349465999752,529.035218200006,529.035218200006,529.9200933999964,z,1,0.8702306000050157,None,192582,001,2024-10-15_14h37.19.056,motor sequence laerning,2024.1.5,None,2024-10-15 14h37.27.132011 +0530,
-50,x,44,0,176,0,,,,,529.9349357999745,,529.9215449999901,529.9349357999745,530.9352735999855,530.9352735999855,530.9352735999855,530.9352735999855,530.9352735999855,531.9350932000089,531.9350932000089,533.0547992999782,x,1,1.1126347000245005,None,192582,001,2024-10-15_14h37.19.056,motor sequence laerning,2024.1.5,None,2024-10-15 14h37.27.132011 +0530,
150,v,44,1,177,1,,,,,533.0688525000005,,533.0566015999648,533.0688525000005,534.0690051999991,534.0690051999991,534.0690051999991,534.0690051999991,534.0690051999991,535.0687518999912,535.0687518999912,536.6714140999829,v,1,1.599515599955339,None,192582,001,2024-10-15_14h37.19.056,motor sequence laerning,2024.1.5,None,2024-10-15 14h37.27.132011 +0530,
50,c,44,2,178,2,,,,,536.6851779999561,,536.6726988999872,536.6851779999561,537.685556899989,537.685556899989,537.685556899989,537.685556899989,537.685556899989,538.6851840000018,538.6851840000018,540.1533570999745,c,1,1.4512039000401273,None,192582,001,2024-10-15_14h37.19.056,motor sequence laerning,2024.1.5,None,2024-10-15 14h37.27.132011 +0530,
-150,z,44,3,179,3,,,,,540.1683563999832,,540.1552185000037,540.1683563999832,541.1692016999586,541.1692016999586,541.1692016999586,541.1692016999586,541.1692016999586,542.1688748999732,542.1688748999732,542.9207069000113,z,1,0.7431143999565393,None,192582,001,2024-10-15_14h37.19.056,motor sequence laerning,2024.1.5,None,2024-10-15 14h37.27.132011 +0530,
-50,x,45,0,180,0,,,,,542.9352886999841,,542.9221811000025,542.9352886999841,543.9352432999876,543.9352432999876,543.9352432999876,543.9352432999876,543.9352432999876,544.9355926999706,544.9355926999706,546.1054027999635,x,1,1.1663070999784395,None,192582,001,2024-10-15_14h37.19.056,motor sequence laerning,2024.1.5,None,2024-10-15 14h37.27.132011 +0530,
150,v,45,1,181,1,,,,,546.118971799966,,546.1067780999583,546.118971799966,547.118974299985,547.118974299985,547.118974299985,547.118974299985,547.118974299985,548.1189422999742,548.1189422999742,549.5707951000077,v,1,1.4343437999486923,None,192582,001,2024-10-15_14h37.19.056,motor sequence laerning,2024.1.5,None,2024-10-15 14h37.27.132011 +0530,
50,c,45,2,182,2,,,,,549.5853473999887,,549.5725290999981,549.5853473999887,550.5851828999585,550.5851828999585,550.5851828999585,550.5851828999585,550.5851828999585,551.5854384999839,551.5854384999839,554.6706862999708,c,1,3.0708559000049718,None,192582,001,2024-10-15_14h37.19.056,motor sequence laerning,2024.1.5,None,2024-10-15 14h37.27.132011 +0530,
-150,z,45,3,183,3,,,,,554.6854329999769,,554.672085499973,554.6854329999769,555.6859014999936,555.6859014999936,555.6859014999936,555.6859014999936,555.6859014999936,556.6852373000002,556.6852373000002,557.620715099969,z,1,0.9303744000499137,None,192582,001,2024-10-15_14h37.19.056,motor sequence laerning,2024.1.5,None,2024-10-15 14h37.27.132011 +0530,
-50,x,46,0,184,0,,,,,557.6357217999757,,557.6220425000065,557.6357217999757,558.6357564000064,558.6357564000064,558.6357564000064,558.6357564000064,558.6357564000064,559.6357319999952,559.6357319999952,560.3221496999613,x,1,0.6814103000215255,None,192582,001,2024-10-15_14h37.19.056,motor sequence laerning,2024.1.5,None,2024-10-15 14h37.27.132011 +0530,
150,v,46,1,185,1,,,,,560.3355723999557,,560.3235145999934,560.3355723999557,561.3358159000054,561.3358159000054,561.3358159000054,561.3358159000054,561.3358159000054,562.335637799988,562.335637799988,563.1713722999557,v,1,0.8265338999917731,None,192582,001,2024-10-15_14h37.19.056,motor sequence laerning,2024.1.5,None,2024-10-15 14h37.27.132011 +0530,
50,c,46,2,186,2,,,,,563.185831699986,,563.1728208999848,563.185831699986,564.185608699976,564.185608699976,564.185608699976,564.185608699976,564.185608699976,565.185825499997,565.185825499997,565.92148119997,c,1,0.7325517000281252,None,192582,001,2024-10-15_14h37.19.056,motor sequence laerning,2024.1.5,None,2024-10-15 14h37.27.132011 +0530,
-150,z,46,3,187,3,,,,,565.9356947999913,,565.9232220999547,565.9356947999913,566.9359382999828,566.9359382999828,566.9359382999828,566.9359382999828,566.9359382999828,567.9360377999838,567.9360377999838,568.688874799991,z,1,0.749875899986364,None,192582,001,2024-10-15_14h37.19.056,motor sequence laerning,2024.1.5,None,2024-10-15 14h37.27.132011 +0530,
-50,x,47,0,188,0,,,,,568.7028162999777,,568.6903422999894,568.7028162999777,569.7031067999778,569.7031067999778,569.7031067999778,569.7031067999778,569.7031067999778,570.7026323999744,570.7026323999744,572.7723403999698,x,1,2.052500699996017,None,192582,001,2024-10-15_14h37.19.056,motor sequence laerning,2024.1.5,None,2024-10-15 14h37.27.132011 +0530,
150,v,47,1,189,1,,,,,572.7857561999699,,572.7739880000008,572.7857561999699,573.7862281999551,573.7862281999551,573.7862281999551,573.7862281999551,573.7862281999551,574.785940199974,574.785940199974,575.6390999999712,v,1,0.8441843999898992,None,192582,001,2024-10-15_14h37.19.056,motor sequence laerning,2024.1.5,None,2024-10-15 14h37.27.132011 +0530,
50,c,47,2,190,2,,,,,575.6531744999811,,575.640764199954,575.6531744999811,576.6533449999988,576.6533449999988,576.6533449999988,576.6533449999988,576.6533449999988,577.6531367999851,577.6531367999851,583.5722404999542,c,1,5.911894499964546,None,192582,001,2024-10-15_14h37.19.056,motor sequence laerning,2024.1.5,None,2024-10-15 14h37.27.132011 +0530,
-150,z,47,3,191,3,,,,,583.5862016999745,,583.573891100008,583.5862016999745,584.5863303999649,584.5863303999649,584.5863303999649,584.5863303999649,584.5863303999649,585.5863164999755,585.5863164999755,586.3885007000063,z,1,0.7863272000104189,None,192582,001,2024-10-15_14h37.19.056,motor sequence laerning,2024.1.5,None,2024-10-15 14h37.27.132011 +0530,
-50,x,48,0,192,0,,,,,586.4031861000112,,586.3902710999828,586.4031861000112,587.4031428999733,587.4031428999733,587.4031428999733,587.4031428999733,587.4031428999733,588.4034228000091,588.4034228000091,589.2549532999983,x,1,0.8448040999937803,None,192582,001,2024-10-15_14h37.19.056,motor sequence laerning,2024.1.5,None,2024-10-15 14h37.27.132011 +0530,
150,v,48,1,193,1,,,,,589.2702517999569,,589.2561403999571,589.2702517999569,590.2699060000014,590.2699060000014,590.2699060000014,590.2699060000014,590.2699060000014,591.2705151999835,591.2705151999835,592.255468999967,v,1,0.9693863000138663,None,192582,001,2024-10-15_14h37.19.056,motor sequence laerning,2024.1.5,None,2024-10-15 14h37.27.132011 +0530,
50,c,48,2,194,2,,,,,592.270046199963,,592.2574114999734,592.270046199963,593.2698453000048,593.2698453000048,593.2698453000048,593.2698453000048,593.2698453000048,594.2701498999959,594.2701498999959,595.2049695999594,c,1,0.9246006000321358,None,192582,001,2024-10-15_14h37.19.056,motor sequence laerning,2024.1.5,None,2024-10-15 14h37.27.132011 +0530,
-150,z,48,3,195,3,,,,,595.2197169999708,,595.2063453999581,595.2197169999708,596.2203433999675,596.2203433999675,596.2203433999675,596.2203433999675,596.2203433999675,597.2200259999954,597.2200259999954,597.9729798999615,z,1,0.7368386999587528,None,192582,001,2024-10-15_14h37.19.056,motor sequence laerning,2024.1.5,None,2024-10-15 14h37.27.132011 +0530,
-50,x,49,0,196,0,,,,,597.9864881999674,,597.9746919999598,597.9864881999674,598.9864195999689,598.9864195999689,598.9864195999689,598.9864195999689,598.9864195999689,599.9865940999589,599.9865940999589,600.9223818999599,x,1,0.9300150999915786,None,192582,001,2024-10-15_14h37.19.056,motor sequence laerning,2024.1.5,None,2024-10-15 14h37.27.132011 +0530,
150,v,49,1,197,1,,,,,600.9364179999684,,600.9240574999712,600.9364179999684,601.9369460999733,601.9369460999733,601.9369460999733,601.9369460999733,601.9369460999733,602.9366593000013,602.9366593000013,604.0234816999873,v,1,1.084617700020317,None,192582,001,2024-10-15_14h37.19.056,motor sequence laerning,2024.1.5,None,2024-10-15 14h37.27.132011 +0530,
50,c,49,2,198,2,,,,,604.0364828999736,,604.0251624999801,604.0364828999736,605.036925399967,605.036925399967,605.036925399967,605.036925399967,605.036925399967,606.0368002000032,606.0368002000032,607.0728689999669,c,1,1.0279549999977462,None,192582,001,2024-10-15_14h37.19.056,motor sequence laerning,2024.1.5,None,2024-10-15 14h37.27.132011 +0530,
-150,z,49,3,199,3,,,,,607.0865651000058,,607.0749635999673,607.0865651000058,608.0868049999699,608.0868049999699,608.0868049999699,608.0868049999699,608.0868049999699,609.0870264999685,609.0870264999685,609.8891921999748,z,1,0.7938525000354275,None,192582,001,2024-10-15_14h37.19.056,motor sequence laerning,2024.1.5,None,2024-10-15 14h37.27.132011 +0530,
-50,x,,,,,0,0,0,0,609.9033348999801,,609.8964497999987,609.9033348999801,610.903852199961,610.903852199961,610.903852199961,610.903852199961,610.903852199961,611.9036900000065,611.9036900000065,613.3893236999866,x,1,1.4731073000002652,None,192582,001,2024-10-15_14h37.19.056,motor sequence laerning,2024.1.5,None,2024-10-15 14h37.27.132011 +0530,
150,v,,,,,0,1,1,1,613.4033127999865,,613.3914539999678,613.4033127999865,614.404086399998,614.404086399998,614.404086399998,614.404086399998,614.404086399998,615.4039974999614,615.4039974999614,616.3072309999843,v,1,0.8844053000211716,None,192582,001,2024-10-15_14h37.19.056,motor sequence laerning,2024.1.5,None,2024-10-15 14h37.27.132011 +0530,
150,v,,,,,0,2,2,1,616.3204544999753,,616.3087757999892,616.3204544999753,617.3204257999896,617.3204257999896,617.3204257999896,617.3204257999896,617.3204257999896,618.3203506999998,618.3203506999998,618.872387499956,v,1,0.5384973000036553,None,192582,001,2024-10-15_14h37.19.056,motor sequence laerning,2024.1.5,None,2024-10-15 14h37.27.132011 +0530,
150,v,,,,,0,3,3,1,618.8870942000067,,618.8740488999756,618.8870942000067,619.8872115999693,619.8872115999693,619.8872115999693,619.8872115999693,619.8872115999693,620.8872272999724,620.8872272999724,621.4219400999718,v,1,0.5302022999967448,None,192582,001,2024-10-15_14h37.19.056,motor sequence laerning,2024.1.5,None,2024-10-15 14h37.27.132011 +0530,
150,v,,,,,1,0,4,1,621.4370701999869,,621.4237117999583,621.4370701999869,622.438022599963,622.438022599963,622.438022599963,622.438022599963,622.438022599963,623.4372137999744,623.4372137999744,623.9892743999953,v,1,0.5403865000116639,None,192582,001,2024-10-15_14h37.19.056,motor sequence laerning,2024.1.5,None,2024-10-15 14h37.27.132011 +0530,
150,v,,,,,1,1,5,1,624.0041290000081,,623.9910756999743,624.0041290000081,625.004307199968,625.004307199968,625.004307199968,625.004307199968,625.004307199968,626.0044564999989,626.0044564999989,626.4721810999908,v,1,0.45097129995701835,None,192582,001,2024-10-15_14h37.19.056,motor sequence laerning,2024.1.5,None,2024-10-15 14h37.27.132011 +0530,
50,c,,,,,1,2,6,2,626.487242800009,,626.4734226999572,626.487242800009,627.4873776999884,627.4873776999884,627.4873776999884,627.4873776999884,627.4873776999884,628.4871522999601,628.4871522999601,629.1070326999761,c,1,0.6022582000005059,None,192582,001,2024-10-15_14h37.19.056,motor sequence laerning,2024.1.5,None,2024-10-15 14h37.27.132011 +0530,
-50,x,,,,,1,3,7,0,629.1208190000034,,629.1085355000105,629.1208190000034,630.1211426999653,630.1211426999653,630.1211426999653,630.1211426999653,630.1211426999653,631.1207671999582,631.1207671999582,631.856406899984,x,1,0.7240002999897115,None,192582,001,2024-10-15_14h37.19.056,motor sequence laerning,2024.1.5,None,2024-10-15 14h37.27.132011 +0530,
-150,z,,,,,2,0,8,3,631.8710324999993,,631.8579400999588,631.8710324999993,632.871213699982,632.871213699982,632.871213699982,632.871213699982,632.871213699982,633.8705399999744,633.8705399999744,634.1903738999972,z,1,0.3154995000222698,None,192582,001,2024-10-15_14h37.19.056,motor sequence laerning,2024.1.5,None,2024-10-15 14h37.27.132011 +0530,
50,c,,,,,2,1,9,2,634.2040369999595,,634.1920299999765,634.2040369999595,635.2045968999737,635.2045968999737,635.2045968999737,635.2045968999737,635.2045968999737,636.204274699965,636.204274699965,637.0064564999775,c,1,0.7913111000088975,None,192582,001,2024-10-15_14h37.19.056,motor sequence laerning,2024.1.5,None,2024-10-15 14h37.27.132011 +0530,
50,c,,,,,2,2,10,2,637.0208650999703,,637.0080615999759,637.0208650999703,638.0214026999893,638.0214026999893,638.0214026999893,638.0214026999893,638.0214026999893,639.020627299964,639.020627299964,639.5554543999606,c,1,0.5222381000057794,None,192582,001,2024-10-15_14h37.19.056,motor sequence laerning,2024.1.5,None,2024-10-15 14h37.27.132011 +0530,
-50,x,,,,,2,3,11,0,639.5705613999744,,639.5567114999867,639.5705613999744,640.5706004999811,640.5706004999811,640.5706004999811,640.5706004999811,640.5706004999811,641.5710739999777,641.5710739999777,642.2409333999967,x,1,0.6567498000222258,None,192582,001,2024-10-15_14h37.19.056,motor sequence laerning,2024.1.5,None,2024-10-15 14h37.27.132011 +0530,
150,v,,,,,3,0,12,1,642.254494199995,,642.2424129999708,642.254494199995,643.2540294000064,643.2540294000064,643.2540294000064,643.2540294000064,643.2540294000064,644.2545920999837,644.2545920999837,645.1903337999829,v,1,0.9331549999769777,None,192582,001,2024-10-15_14h37.19.056,motor sequence laerning,2024.1.5,None,2024-10-15 14h37.27.132011 +0530,
-50,x,,,,,3,1,13,0,645.2041817999561,,645.1918460999732,645.2041817999561,646.2045713000116,646.2045713000116,646.2045713000116,646.2045713000116,646.2045713000116,647.2046492999652,647.2046492999652,647.9563794999849,x,1,0.7436278000241145,None,192582,001,2024-10-15_14h37.19.056,motor sequence laerning,2024.1.5,None,2024-10-15 14h37.27.132011 +0530,
-150,z,,,,,3,2,14,3,647.9713110000012,,647.9575268999906,647.9713110000012,648.9714414000046,648.9714414000046,648.9714414000046,648.9714414000046,648.9714414000046,649.9709244999685,649.9709244999685,650.7572740999749,z,1,0.7807080000056885,None,192582,001,2024-10-15_14h37.19.056,motor sequence laerning,2024.1.5,None,2024-10-15 14h37.27.132011 +0530,
-50,x,,,,,3,3,15,0,650.7711618999601,,650.7592206000118,650.7711618999601,651.7713908999576,651.7713908999576,651.7713908999576,651.7713908999576,651.7713908999576,652.7714257999905,652.7714257999905,654.2732232999988,x,1,1.4856661000521854,None,192582,001,2024-10-15_14h37.19.056,motor sequence laerning,2024.1.5,None,2024-10-15 14h37.27.132011 +0530,
-50,x,,,,,4,0,16,0,654.2876647000085,,654.2748002999579,654.2876647000085,655.2879535999964,655.2879535999964,655.2879535999964,655.2879535999964,655.2879535999964,656.2876819999656,656.2876819999656,657.6389957999927,x,1,1.3468923000036739,None,192582,001,2024-10-15_14h37.19.056,motor sequence laerning,2024.1.5,None,2024-10-15 14h37.27.132011 +0530,
150,v,,,,,4,1,17,1,657.6547159999609,,657.6402796999901,657.6547159999609,658.6544442999875,658.6544442999875,658.6544442999875,658.6544442999875,658.6544442999875,659.6544935999555,659.6544935999555,660.1912394000101,v,1,0.5277268000063486,None,192582,001,2024-10-15_14h37.19.056,motor sequence laerning,2024.1.5,None,2024-10-15 14h37.27.132011 +0530,
-50,x,,,,,4,2,18,0,660.204959499999,,660.1928452999564,660.204959499999,661.2050011999672,661.2050011999672,661.2050011999672,661.2050011999672,661.2050011999672,662.2048837000038,662.2048837000038,663.7240691999905,x,1,1.5160039000329562,None,192582,001,2024-10-15_14h37.19.056,motor sequence laerning,2024.1.5,None,2024-10-15 14h37.27.132011 +0530,
150,v,,,,,4,3,19,1,663.7379627999617,,663.7261509000091,663.7379627999617,664.7381120999926,664.7381120999926,664.7381120999926,664.7381120999926,664.7381120999926,665.737680399965,665.737680399965,666.3561266000033,v,1,0.6073630999890156,None,192582,001,2024-10-15_14h37.19.056,motor sequence laerning,2024.1.5,None,2024-10-15 14h37.27.132011 +0530,
-150,z,,,,,5,0,20,3,666.371690800006,,666.3573612999753,666.371690800006,667.3712640999584,667.3712640999584,667.3712640999584,667.3712640999584,667.3712640999584,668.3719793999917,668.3719793999917,668.8572459999705,z,1,0.4805767999496311,None,192582,001,2024-10-15_14h37.19.056,motor sequence laerning,2024.1.5,None,2024-10-15 14h37.27.132011 +0530,
-150,z,,,,,5,1,21,3,668.8717503999942,,668.8594072999549,668.8717503999942,669.8719907999621,669.8719907999621,669.8719907999621,669.8719907999621,669.8719907999621,670.8719908999628,670.8719908999628,671.4909562999965,z,1,0.6090867999591865,None,192582,001,2024-10-15_14h37.19.056,motor sequence laerning,2024.1.5,None,2024-10-15 14h37.27.132011 +0530,
-150,z,,,,,5,2,22,3,671.5050666999887,,671.4927472999552,671.5050666999887,672.5053635999793,672.5053635999793,672.5053635999793,672.5053635999793,672.5053635999793,673.5053108999855,673.5053108999855,676.2404001000104,z,1,2.7187077999697067,None,192582,001,2024-10-15_14h37.19.056,motor sequence laerning,2024.1.5,None,2024-10-15 14h37.27.132011 +0530,
-50,x,,,,,5,3,23,0,676.2550725999754,,676.2420213999576,676.2550725999754,677.2554900000105,677.2554900000105,677.2554900000105,677.2554900000105,677.2554900000105,678.2552932999679,678.2552932999679,679.1404315999825,x,1,0.8787490999675356,None,192582,001,2024-10-15_14h37.19.056,motor sequence laerning,2024.1.5,None,2024-10-15 14h37.27.132011 +0530,
150,v,,,,,6,0,24,1,679.1551298999693,,679.142172199965,679.1551298999693,680.1552553999936,680.1552553999936,680.1552553999936,680.1552553999936,680.1552553999936,681.1549693999696,681.1549693999696,681.673874399974,v,1,0.5024723999667913,None,192582,001,2024-10-15_14h37.19.056,motor sequence laerning,2024.1.5,None,2024-10-15 14h37.27.132011 +0530,
50,c,,,,,6,1,25,2,681.6880448999582,,681.6756394999684,681.6880448999582,682.6883412000025,682.6883412000025,682.6883412000025,682.6883412000025,682.6883412000025,683.6883232999826,683.6883232999826,685.3400779999793,c,1,1.6432180000119843,None,192582,001,2024-10-15_14h37.19.056,motor sequence laerning,2024.1.5,None,2024-10-15 14h37.27.132011 +0530,
-50,x,,,,,6,2,26,0,685.3554612000007,,685.3414892999572,685.3554612000007,686.3555118999793,686.3555118999793,686.3555118999793,686.3555118999793,686.3555118999793,687.355519499979,687.355519499979,689.890550000011,x,1,2.5263668000116013,None,192582,001,2024-10-15_14h37.19.056,motor sequence laerning,2024.1.5,None,2024-10-15 14h37.27.132011 +0530,
50,c,,,,,6,3,27,2,689.9053707999992,,689.8926648999914,689.9053707999992,690.9058045999845,690.9058045999845,690.9058045999845,690.9058045999845,690.9058045999845,691.9056417999673,691.9056417999673,693.8908666999778,c,1,1.9793405999662355,None,192582,001,2024-10-15_14h37.19.056,motor sequence laerning,2024.1.5,None,2024-10-15 14h37.27.132011 +0530,
50,c,,,,,7,0,28,2,693.9056966999779,,693.8926395999733,693.9056966999779,694.9054314999958,694.9054314999958,694.9054314999958,694.9054314999958,694.9054314999958,695.9056174999569,695.9056174999569,696.6732843999634,c,1,0.7544896999606863,None,192582,001,2024-10-15_14h37.19.056,motor sequence laerning,2024.1.5,None,2024-10-15 14h37.27.132011 +0530,
50,c,,,,,7,1,29,2,696.6883532999782,,696.6744801999885,696.6883532999782,697.6883042000118,697.6883042000118,697.6883042000118,697.6883042000118,697.6883042000118,698.6884120999603,698.6884120999603,699.5238039999967,c,1,0.8214858999708667,None,192582,001,2024-10-15_14h37.19.056,motor sequence laerning,2024.1.5,None,2024-10-15 14h37.27.132011 +0530,
-150,z,,,,,7,2,30,3,699.538814199972,,699.5250945999869,699.538814199972,700.5388901999686,700.5388901999686,700.5388901999686,700.5388901999686,700.5388901999686,701.5389823999722,701.5389823999722,702.1570612000069,z,1,0.6132805999950506,None,192582,001,2024-10-15_14h37.19.056,motor sequence laerning,2024.1.5,None,2024-10-15 14h37.27.132011 +0530,
-150,z,,,,,7,3,31,3,702.1725081999903,,702.1585796999861,702.1725081999903,703.1725806999602,703.1725806999602,703.1725806999602,703.1725806999602,703.1725806999602,704.172297299956,704.172297299956,704.8087417999632,z,1,0.6214435000438243,None,192582,001,2024-10-15_14h37.19.056,motor sequence laerning,2024.1.5,None,2024-10-15 14h37.27.132011 +0530,
-50,x,,,,,8,0,32,0,704.8222135999822,,704.8104372000089,704.8222135999822,705.8220405000029,705.8220405000029,705.8220405000029,705.8220405000029,705.8220405000029,706.822513799998,706.822513799998,707.956807599985,x,1,1.1313197000417858,None,192582,001,2024-10-15_14h37.19.056,motor sequence laerning,2024.1.5,None,2024-10-15 14h37.27.132011 +0530,
150,v,,,,,8,1,33,1,707.9724652000004,,707.9580073999823,707.9724652000004,708.972527899954,708.972527899954,708.972527899954,708.972527899954,708.972527899954,709.9721093999688,709.9721093999688,710.624114700011,v,1,0.643865599995479,None,192582,001,2024-10-15_14h37.19.056,motor sequence laerning,2024.1.5,None,2024-10-15 14h37.27.132011 +0530,
50,c,,,,,8,2,34,2,710.6387830000021,,710.6257826999645,710.6387830000021,711.6392110000015,711.6392110000015,711.6392110000015,711.6392110000015,711.6392110000015,712.6391851999797,712.6391851999797,713.3911740999902,c,1,0.7420466999756172,None,192582,001,2024-10-15_14h37.19.056,motor sequence laerning,2024.1.5,None,2024-10-15 14h37.27.132011 +0530,
50,c,,,,,8,3,35,2,713.4061140999547,,713.3926711999811,713.4061140999547,714.4057769000065,714.4057769000065,714.4057769000065,714.4057769000065,714.4057769000065,715.4062596999574,715.4062596999574,716.4417634999845,c,1,1.027721600024961,None,192582,001,2024-10-15_14h37.19.056,motor sequence laerning,2024.1.5,None,2024-10-15 14h37.27.132011 +0530,
50,c,,,,,9,0,36,2,716.4559691000031,,716.443513199978,716.4559691000031,717.4560457000043,717.4560457000043,717.4560457000043,717.4560457000043,717.4560457000043,718.456172199978,718.456172199978,719.2592752999626,c,1,0.7888951000059023,None,192582,001,2024-10-15_14h37.19.056,motor sequence laerning,2024.1.5,None,2024-10-15 14h37.27.132011 +0530,
-50,x,,,,,9,1,37,0,719.2728297999711,,719.2610559999594,719.2728297999711,720.2731067999848,720.2731067999848,720.2731067999848,720.2731067999848,720.2731067999848,721.2724079999607,721.2724079999607,722.1915843999595,x,1,0.9142526000505313,None,192582,001,2024-10-15_14h37.19.056,motor sequence laerning,2024.1.5,None,2024-10-15 14h37.27.132011 +0530,
50,c,,,,,9,2,38,2,722.2062375000096,,722.1934204999707,722.2062375000096,723.2062180999783,723.2062180999783,723.2062180999783,723.2062180999783,723.2062180999783,724.2063196999952,724.2063196999952,725.5429956999724,c,1,1.3328901000204496,None,192582,001,2024-10-15_14h37.19.056,motor sequence laerning,2024.1.5,None,2024-10-15 14h37.27.132011 +0530,
50,c,,,,,9,3,39,2,725.55625959998,,725.544698499958,725.55625959998,726.5563630000106,726.5563630000106,726.5563630000106,726.5563630000106,726.5563630000106,727.5562688999926,727.5562688999926,730.2578648999915,c,1,2.6990848000277765,None,192582,001,2024-10-15_14h37.19.056,motor sequence laerning,2024.1.5,None,2024-10-15 14h37.27.132011 +0530,
50,c,,,,,10,0,40,2,730.2727811000077,,730.2592467999784,730.2727811000077,731.2731512999744,731.2731512999744,731.2731512999744,731.2731512999744,731.2731512999744,732.2730231999885,732.2730231999885,732.8086742999731,c,1,0.5281149999937043,None,192582,001,2024-10-15_14h37.19.056,motor sequence laerning,2024.1.5,None,2024-10-15 14h37.27.132011 +0530,
-150,z,,,,,10,1,41,3,732.8231589999632,,732.8101184999687,732.8231589999632,733.8229710999876,733.8229710999876,733.8229710999876,733.8229710999876,733.8229710999876,734.823186499998,734.823186499998,735.8253414999926,z,1,0.9884652000037022,None,192582,001,2024-10-15_14h37.19.056,motor sequence laerning,2024.1.5,None,2024-10-15 14h37.27.132011 +0530,
50,c,,,,,10,2,42,2,735.8395130999852,,735.8269655999611,735.8395130999852,736.8396655999823,736.8396655999823,736.8396655999823,736.8396655999823,736.8396655999823,737.8394527999917,737.8394527999917,738.392451599997,c,1,0.5459889000048861,None,192582,001,2024-10-15_14h37.19.056,motor sequence laerning,2024.1.5,None,2024-10-15 14h37.27.132011 +0530,
-150,z,,,,,10,3,43,3,738.4063994999742,,738.3941526999697,738.4063994999742,739.4065113000106,739.4065113000106,739.4065113000106,739.4065113000106,739.4065113000106,740.4065451999777,740.4065451999777,741.0583353000111,z,1,0.6485307000111789,None,192582,001,2024-10-15_14h37.19.056,motor sequence laerning,2024.1.5,None,2024-10-15 14h37.27.132011 +0530,
50,c,,,,,11,0,44,2,741.0728760999627,,741.0595220999676,741.0728760999627,742.0732044999604,742.0732044999604,742.0732044999604,742.0732044999604,742.0732044999604,743.0735666999826,743.0735666999826,743.9091756999842,c,1,0.8230431999545544,None,192582,001,2024-10-15_14h37.19.056,motor sequence laerning,2024.1.5,None,2024-10-15 14h37.27.132011 +0530,
-150,z,,,,,11,1,45,3,743.9233511000057,,743.9104116999661,743.9233511000057,744.923370399978,744.923370399978,744.923370399978,744.923370399978,744.923370399978,745.9232225999585,745.9232225999585,746.4599342999863,lcmd,0,0.5330442999838851,None,192582,001,2024-10-15_14h37.19.056,motor sequence laerning,2024.1.5,None,2024-10-15 14h37.27.132011 +0530,
-50,x,,,,,11,2,46,0,746.473331999965,,746.4614901999594,746.473331999965,747.4671632999671,747.4671632999671,747.4671632999671,747.4671632999671,747.4833618999692,748.4700247999863,748.4700247999863,752.7073163999594,x,1,4.228472899994813,None,192582,001,2024-10-15_14h37.19.056,motor sequence laerning,2024.1.5,None,2024-10-15 14h37.27.132011 +0530,
150,v,,,,,11,3,47,1,752.7226285999641,,752.7090033999993,752.7226285999641,753.7232046999852,753.7232046999852,753.7232046999852,753.7232046999852,753.7232046999852,754.7229949999601,754.7229949999601,755.4248502000119,v,1,0.6952926000230946,None,192582,001,2024-10-15_14h37.19.056,motor sequence laerning,2024.1.5,None,2024-10-15 14h37.27.132011 +0530,
50,c,,,,,12,0,48,2,755.4397284999723,,755.4263557000086,755.4397284999723,756.4401373000001,756.4401373000001,756.4401373000001,756.4401373000001,756.4401373000001,757.4397960999631,757.4397960999631,758.1581592999864,c,1,0.7031490000081249,None,192582,001,2024-10-15_14h37.19.056,motor sequence laerning,2024.1.5,None,2024-10-15 14h37.27.132011 +0530,
150,v,,,,,12,1,49,1,758.1727389000007,,758.1597549999715,758.1727389000007,759.1734941999894,759.1734941999894,759.1734941999894,759.1734941999894,759.1734941999894,760.1732706999755,760.1732706999755,761.0089026999776,v,1,0.8295913000474684,None,192582,001,2024-10-15_14h37.19.056,motor sequence laerning,2024.1.5,None,2024-10-15 14h37.27.132011 +0530,
150,v,,,,,12,2,50,1,761.023125000007,,761.0104670999572,761.023125000007,762.0236180999782,762.0236180999782,762.0236180999782,762.0236180999782,762.0236180999782,763.0233767000027,763.0233767000027,763.559483799967,v,1,0.5206085999961942,None,192582,001,2024-10-15_14h37.19.056,motor sequence laerning,2024.1.5,None,2024-10-15 14h37.27.132011 +0530,
-50,x,,,,,12,3,51,0,763.5733562000096,,763.5610095000011,763.5733562000096,764.5734158999985,764.5734158999985,764.5734158999985,764.5734158999985,764.5734158999985,765.5733043999644,765.5733043999644,766.7587272999808,x,1,1.1809457000344992,None,192582,001,2024-10-15_14h37.19.056,motor sequence laerning,2024.1.5,None,2024-10-15 14h37.27.132011 +0530,
150,v,,,,,13,0,52,1,766.7732236000011,,766.7604943999904,766.7732236000011,767.7732357999776,767.7732357999776,767.7732357999776,767.7732357999776,767.7732357999776,768.7731425999664,768.7731425999664,769.3409286999959,v,1,0.556710299977567,None,192582,001,2024-10-15_14h37.19.056,motor sequence laerning,2024.1.5,None,2024-10-15 14h37.27.132011 +0530,
-50,x,,,,,13,1,53,0,769.3564439999755,,769.3419785999577,769.3564439999755,770.3568417999777,770.3568417999777,770.3568417999777,770.3568417999777,770.3568417999777,771.3565054999781,771.3565054999781,772.0086022999603,x,1,0.6462045999942347,None,192582,001,2024-10-15_14h37.19.056,motor sequence laerning,2024.1.5,None,2024-10-15 14h37.27.132011 +0530,
150,v,,,,,13,2,54,1,772.0231655999669,,772.0106897999649,772.0231655999669,773.0233493999694,773.0233493999694,773.0233493999694,773.0233493999694,773.0233493999694,774.0232448999886,774.0232448999886,774.6263791999663,v,1,0.5908462000079453,None,192582,001,2024-10-15_14h37.19.056,motor sequence laerning,2024.1.5,None,2024-10-15 14h37.27.132011 +0530,
-150,z,,,,,13,3,55,3,774.6404133999604,,774.6280193999992,774.6404133999604,775.6404677999672,775.6404677999672,775.6404677999672,775.6404677999672,775.6404677999672,776.6399454000057,776.6399454000057,777.2258262999821,z,1,0.5780076999799348,None,192582,001,2024-10-15_14h37.19.056,motor sequence laerning,2024.1.5,None,2024-10-15 14h37.27.132011 +0530,
50,c,,,,,14,0,56,2,777.2402949999669,,777.2275797000038,777.2402949999669,778.2404523000005,778.2404523000005,778.2404523000005,778.2404523000005,778.2404523000005,779.2401410999591,779.2401410999591,781.3593255999731,c,1,2.105277800001204,None,192582,001,2024-10-15_14h37.19.056,motor sequence laerning,2024.1.5,None,2024-10-15 14h37.27.132011 +0530,
-150,z,,,,,14,1,57,3,781.3740037999814,,781.3608249999816,781.3740037999814,782.373985299957,782.373985299957,782.373985299957,782.373985299957,782.373985299957,783.3737518999842,783.3737518999842,784.1766390000121,z,1,0.7963851999957114,None,192582,001,2024-10-15_14h37.19.056,motor sequence laerning,2024.1.5,None,2024-10-15 14h37.27.132011 +0530,
150,v,,,,,14,2,58,1,784.1904545999714,,784.1784732000087,784.1904545999714,785.1904909999575,785.1904909999575,785.1904909999575,785.1904909999575,785.1904909999575,786.1905797999934,786.1905797999934,787.4422852999996,v,1,1.244306799955666,None,192582,001,2024-10-15_14h37.19.056,motor sequence laerning,2024.1.5,None,2024-10-15 14h37.27.132011 +0530,
50,c,,,,,14,3,59,2,787.4571444999892,,787.4438440999947,787.4571444999892,788.4570485999575,788.4570485999575,788.4570485999575,788.4570485999575,788.4570485999575,789.4572721999721,789.4572721999721,790.3931182000088,c,1,0.9209066000184976,None,192582,001,2024-10-15_14h37.19.056,motor sequence laerning,2024.1.5,None,2024-10-15 14h37.27.132011 +0530,
-150,z,,,,,15,0,60,3,790.407109599968,,790.3947002000059,790.407109599968,791.4069540000055,791.4069540000055,791.4069540000055,791.4069540000055,791.4069540000055,792.4069601999945,792.4069601999945,792.8938233999652,z,1,0.47389730002032593,None,192582,001,2024-10-15_14h37.19.056,motor sequence laerning,2024.1.5,None,2024-10-15 14h37.27.132011 +0530,
50,c,,,,,15,1,61,2,792.9074159999727,,792.8954972999636,792.9074159999727,793.9075315999798,793.9075315999798,793.9075315999798,793.9075315999798,793.9075315999798,794.9075235999771,794.9075235999771,795.4764133999706,c,1,0.5562716000131331,None,192582,001,2024-10-15_14h37.19.056,motor sequence laerning,2024.1.5,None,2024-10-15 14h37.27.132011 +0530,
-50,x,,,,,15,2,62,0,795.4905545999645,,795.4776871000067,795.4905545999645,796.490313199989,796.490313199989,796.490313199989,796.490313199989,796.490313199989,797.4903432999854,797.4903432999854,798.2754009999917,x,1,0.7705038000131026,None,192582,001,2024-10-15_14h37.19.056,motor sequence laerning,2024.1.5,None,2024-10-15 14h37.27.132011 +0530,
150,v,,,,,15,3,63,1,798.2909656999982,,798.2769269999699,798.2909656999982,799.2904833999928,799.2904833999928,799.2904833999928,799.2904833999928,799.2904833999928,800.2904161000042,800.2904161000042,800.8756955999997,v,1,0.5722373999888077,None,192582,001,2024-10-15_14h37.19.056,motor sequence laerning,2024.1.5,None,2024-10-15 14h37.27.132011 +0530,
-150,z,,,,,16,0,64,3,800.8910022999626,,800.8772991999867,800.8910022999626,801.890914699994,801.890914699994,801.890914699994,801.890914699994,801.890914699994,802.8909197999747,802.8909197999747,803.3776439999929,z,1,0.4831030999775976,None,192582,001,2024-10-15_14h37.19.056,motor sequence laerning,2024.1.5,None,2024-10-15 14h37.27.132011 +0530,
-50,x,,,,,16,1,65,0,803.3905805000104,,803.3793803000008,803.3905805000104,804.390941599966,804.390941599966,804.390941599966,804.390941599966,804.390941599966,805.3909304999979,805.3909304999979,806.1275723999715,x,1,0.7304267000290565,None,192582,001,2024-10-15_14h37.19.056,motor sequence laerning,2024.1.5,None,2024-10-15 14h37.27.132011 +0530,
-150,z,,,,,16,2,66,3,806.141050199978,,806.1289767999551,806.141050199978,807.140811899968,807.140811899968,807.140811899968,807.140811899968,807.140811899968,808.1409673999879,808.1409673999879,808.8594373000087,z,1,0.7050971999997273,None,192582,001,2024-10-15_14h37.19.056,motor sequence laerning,2024.1.5,None,2024-10-15 14h37.27.132011 +0530,
150,v,,,,,16,3,67,1,808.8739994000061,,808.8609465999762,808.8739994000061,809.8747328000027,809.8747328000027,809.8747328000027,809.8747328000027,809.8747328000027,810.8745364999631,810.8745364999631,811.3760715000099,v,1,0.4899771999916993,None,192582,001,2024-10-15_14h37.19.056,motor sequence laerning,2024.1.5,None,2024-10-15 14h37.27.132011 +0530,
-50,x,,,,,17,0,68,0,811.39130139997,,811.3773233999964,811.39130139997,812.3911300000036,812.3911300000036,812.3911300000036,812.3911300000036,812.3911300000036,813.391220599995,813.391220599995,814.1608501999872,x,1,0.7671191999688745,None,192582,001,2024-10-15_14h37.19.056,motor sequence laerning,2024.1.5,None,2024-10-15 14h37.27.132011 +0530,
-50,x,,,,,17,1,69,0,814.1743204999948,,814.1625522999675,814.1743204999948,815.1744799999869,815.1744799999869,815.1744799999869,815.1744799999869,815.1744799999869,816.1740889999783,816.1740889999783,817.1104611000046,x,1,0.9225963000208139,None,192582,001,2024-10-15_14h37.19.056,motor sequence laerning,2024.1.5,None,2024-10-15 14h37.27.132011 +0530,
150,v,,,,,17,2,70,1,817.1246212999686,,817.1120388999698,817.1246212999686,818.1249458999955,818.1249458999955,818.1249458999955,818.1249458999955,818.1249458999955,819.1248003999935,819.1248003999935,820.1605276999762,v,1,1.0266866000019945,None,192582,001,2024-10-15_14h37.19.056,motor sequence laerning,2024.1.5,None,2024-10-15 14h37.27.132011 +0530,
50,c,,,,,17,3,71,2,820.1745923999697,,820.1622488999856,820.1745923999697,821.174830599979,821.174830599979,821.174830599979,821.174830599979,821.174830599979,822.1749494000105,822.1749494000105,823.4947767999838,c,1,1.3076076000579633,None,192582,001,2024-10-15_14h37.19.056,motor sequence laerning,2024.1.5,None,2024-10-15 14h37.27.132011 +0530,
150,v,,,,,18,0,72,1,823.5079061999568,,823.4968524999567,823.5079061999568,824.5083176000044,824.5083176000044,824.5083176000044,824.5083176000044,824.5083176000044,825.507822399959,825.507822399959,826.1276521999971,v,1,0.610891200019978,None,192582,001,2024-10-15_14h37.19.056,motor sequence laerning,2024.1.5,None,2024-10-15 14h37.27.132011 +0530,
150,v,,,,,18,1,73,1,826.1411664999905,,826.129067300004,826.1411664999905,827.1409095999552,827.1409095999552,827.1409095999552,827.1409095999552,827.1409095999552,828.141032799962,828.141032799962,828.9101286999648,v,1,0.7531451999675483,None,192582,001,2024-10-15_14h37.19.056,motor sequence laerning,2024.1.5,None,2024-10-15 14h37.27.132011 +0530,
150,v,,,,,18,2,74,1,828.9247685999726,,828.9121733999928,828.9247685999726,829.9250830999808,829.9250830999808,829.9250830999808,829.9250830999808,829.9250830999808,830.9246112999972,830.9246112999972,832.6771038000006,v,1,1.7349408000009134,None,192582,001,2024-10-15_14h37.19.056,motor sequence laerning,2024.1.5,None,2024-10-15 14h37.27.132011 +0530,
-150,z,,,,,18,3,75,3,832.6912108999677,,832.6790092999581,832.6912108999677,833.6914149000077,833.6914149000077,833.6914149000077,833.6914149000077,833.6914149000077,834.6915638999781,834.6915638999781,835.4940429999842,z,1,0.7864176000002772,None,192582,001,2024-10-15_14h37.19.056,motor sequence laerning,2024.1.5,None,2024-10-15 14h37.27.132011 +0530,
-150,z,,,,,19,0,76,3,835.5084053999744,,835.4957068999647,835.5084053999744,836.5087225000025,836.5087225000025,836.5087225000025,836.5087225000025,836.5087225000025,837.5082882999559,837.5082882999559,838.3612049999647,z,1,0.8419981999904849,None,192582,001,2024-10-15_14h37.19.056,motor sequence laerning,2024.1.5,None,2024-10-15 14h37.27.132011 +0530,
150,v,,,,,19,1,77,1,838.3749324000091,,838.362977599958,838.3749324000091,839.3751562999678,839.3751562999678,839.3751562999678,839.3751562999678,839.3751562999678,840.3751698999549,840.3751698999549,840.978315699962,v,1,0.5868514999747276,None,192582,001,2024-10-15_14h37.19.056,motor sequence laerning,2024.1.5,None,2024-10-15 14h37.27.132011 +0530,
50,c,,,,,19,2,78,2,840.9915093999589,,840.9805148000014,840.9915093999589,841.991816099966,841.991816099966,841.991816099966,841.991816099966,841.991816099966,842.9917815999943,842.9917815999943,843.7115973999607,c,1,0.7038884999928996,None,192582,001,2024-10-15_14h37.19.056,motor sequence laerning,2024.1.5,None,2024-10-15 14h37.27.132011 +0530,
