trials.thisRepN,trials.thisTrialN,trials.thisN,trials.thisIndex,thisRow.t,notes,trial.started,num_distr,fixation.started,target.started,mouse.started,fixation.stopped,,trial.stopped,mouse.x,mouse.y,mouse.leftButton,mouse.midButton,mouse.rightButton,mouse.clicked_name,participant,session,date,expName,psychopyVersion,frameRate,expStart
0,0,0,0,0.039229,,0.0062748,5,0.039229,0.039229,0.0282199,1.0407729,,5.8791688,0.368333333,-0.184166667,1,0,0,target,388275,1,2024-10-10_12h17.20.917,visual search,2024.1.5,None,2024-10-10 12h17.27.538467 +0530
1,0,1,0,5.9345375,,5.885635,10,5.9345375,5.9345375,0.034465,6.9398745,,8.9421785,-0.13,0.365,1,0,0,target,388275,1,2024-10-10_12h17.20.917,visual search,2024.1.5,None,2024-10-10 12h17.27.538467 +0530
2,0,2,0,8.9695203,,8.9453458,5,8.9695203,8.9695203,0.0168213,9.9743294,,12.2763151,-0.0925,0.445833333,1,0,0,,388275,1,2024-10-10_12h17.20.917,visual search,2024.1.5,None,2024-10-10 12h17.27.538467 +0530
3,0,3,0,12.3256959,,12.2793217,10,12.3256959,12.3256959,0.0320268,,,12.9759236,-0.0925,0.445833333,1,0,0,,388275,1,2024-10-10_12h17.20.917,visual search,2024.1.5,None,2024-10-10 12h17.27.538467 +0530
4,0,4,0,13.0324796,,12.9786183,10,13.0324796,13.0324796,0.0338947,,,13.4661289,-0.0925,0.445833333,1,0,0,,388275,1,2024-10-10_12h17.20.917,visual search,2024.1.5,None,2024-10-10 12h17.27.538467 +0530
5,0,5,0,13.4956023,,13.4694029,5,13.4956023,13.4956023,0.0181282,14.508095,,18.0772122,0.361666667,0.293333333,1,0,0,target,388275,1,2024-10-10_12h17.20.917,visual search,2024.1.5,None,2024-10-10 12h17.27.538467 +0530
6,0,6,0,18.1061866,,18.0814381,5,18.1061866,18.1061866,0.0178753,19.1078055,,20.1105599,0.138333333,0.244166667,1,0,0,target,388275,1,2024-10-10_12h17.20.917,visual search,2024.1.5,None,2024-10-10 12h17.27.538467 +0530
7,0,7,0,20.1642339,,20.1152156,10,20.1642339,20.1642339,0.0346673,21.1747346,,23.8253501,-0.406666667,0.129166667,1,0,0,target,388275,1,2024-10-10_12h17.20.917,visual search,2024.1.5,None,2024-10-10 12h17.27.538467 +0530
8,0,8,0,23.8523642,,23.8282538,5,23.8523642,23.8523642,0.0166602,24.8579877,,25.1770792,-0.193333333,0.381666667,1,0,0,target,388275,1,2024-10-10_12h17.20.917,visual search,2024.1.5,None,2024-10-10 12h17.27.538467 +0530
9,0,9,0,25.2094453,,25.1817845,5,25.2094453,25.2094453,0.0198112,26.2249508,,27.0435014,-0.139166667,-0.44,1,0,0,,388275,1,2024-10-10_12h17.20.917,visual search,2024.1.5,None,2024-10-10 12h17.27.538467 +0530
10,0,10,0,27.073017,,27.0473047,5,27.073017,27.073017,0.0186842,28.0746206,,28.8282374,-0.245833333,0.386666667,1,0,0,target,388275,1,2024-10-10_12h17.20.917,visual search,2024.1.5,None,2024-10-10 12h17.27.538467 +0530
11,0,11,0,28.8615774,,28.8330219,5,28.8615774,28.8615774,0.020712,29.8746522,,30.5427249,0.445,-0.304166667,1,0,0,target,388275,1,2024-10-10_12h17.20.917,visual search,2024.1.5,None,2024-10-10 12h17.27.538467 +0530
12,0,12,0,30.6013468,,30.5474068,10,30.6013468,30.6013468,0.0396294,31.6083342,,32.4758291,-0.058333333,-0.294166667,1,0,0,,388275,1,2024-10-10_12h17.20.917,visual search,2024.1.5,None,2024-10-10 12h17.27.538467 +0530
13,0,13,0,32.5305059,,32.4785559,10,32.5305059,32.5305059,0.031466,33.5446409,,34.9373395,-0.011666667,-0.000833333,1,0,0,target,388275,1,2024-10-10_12h17.20.917,visual search,2024.1.5,None,2024-10-10 12h17.27.538467 +0530
14,0,14,0,34.9963708,,34.9405546,10,34.9963708,34.9963708,0.0309796,36.0110378,,36.3731712,-0.373333333,0.14,1,0,0,target,388275,1,2024-10-10_12h17.20.917,visual search,2024.1.5,None,2024-10-10 12h17.27.538467 +0530
15,0,15,0,36.4371775,,36.3763788,10,36.4371775,36.4371775,0.03005,37.4862199,,38.8053745,0.0525,-0.255,1,0,0,,388275,1,2024-10-10_12h17.20.917,visual search,2024.1.5,None,2024-10-10 12h17.27.538467 +0530
16,0,16,0,38.8759713,,38.8084094,10,38.8759713,38.8759713,0.0310846,39.9378414,,40.2270064,-0.304166667,-0.224166667,1,0,0,target,388275,1,2024-10-10_12h17.20.917,visual search,2024.1.5,None,2024-10-10 12h17.27.538467 +0530
17,0,17,0,40.2685639,,40.2302545,5,40.2685639,40.2685639,0.0273449,41.2751412,,41.8283009,0.088333333,0.051666667,1,0,0,target,388275,1,2024-10-10_12h17.20.917,visual search,2024.1.5,None,2024-10-10 12h17.27.538467 +0530
18,0,18,0,41.8858659,,41.8321536,10,41.8858659,41.8858659,0.037563,42.891855,,43.4096689,-0.236666667,0.404166667,1,0,0,target,388275,1,2024-10-10_12h17.20.917,visual search,2024.1.5,None,2024-10-10 12h17.27.538467 +0530
19,0,19,0,43.4364825,,43.4129432,5,43.4364825,43.4364825,0.016229,44.4418758,,44.6604629,-0.395,0.391666667,1,0,0,target,388275,1,2024-10-10_12h17.20.917,visual search,2024.1.5,None,2024-10-10 12h17.27.538467 +0530
20,0,20,0,44.7235096,,44.6656812,10,44.7235096,44.7235096,0.0439755,45.7252733,,45.7428161,-0.149166667,0.33,1,0,0,target,388275,1,2024-10-10_12h17.20.917,visual search,2024.1.5,None,2024-10-10 12h17.27.538467 +0530
21,0,21,0,45.7692371,,45.7456811,5,45.7692371,45.7692371,0.0161013,46.7752746,,46.9102549,-0.1975,0.151666667,1,0,0,target,388275,1,2024-10-10_12h17.20.917,visual search,2024.1.5,None,2024-10-10 12h17.27.538467 +0530
22,0,22,0,46.9453344,,46.9139304,5,46.9453344,46.9453344,0.0227032,47.9585682,,48.3268275,0.355,0.43,1,0,0,,388275,1,2024-10-10_12h17.20.917,visual search,2024.1.5,None,2024-10-10 12h17.27.538467 +0530
23,0,23,0,48.3860042,,48.3315154,10,48.3860042,48.3860042,0.0384661,49.3918536,,49.859928,-0.2125,0.003333333,1,0,0,target,388275,1,2024-10-10_12h17.20.917,visual search,2024.1.5,None,2024-10-10 12h17.27.538467 +0530
24,0,24,0,49.9202511,,49.8630153,10,49.9202511,49.9202511,0.0359281,50.9351674,,51.8545071,-0.449166667,0.44,1,0,0,target,388275,1,2024-10-10_12h17.20.917,visual search,2024.1.5,None,2024-10-10 12h17.27.538467 +0530
25,0,25,0,51.9203168,,51.8577574,10,51.9203168,51.9203168,0.0314527,52.9402105,,54.3438326,0.434166667,-0.073333333,1,0,0,target,388275,1,2024-10-10_12h17.20.917,visual search,2024.1.5,None,2024-10-10 12h17.27.538467 +0530
26,0,26,0,54.3713498,,54.3468703,5,54.3713498,54.3713498,0.016357,55.3753537,,55.811255,-0.018333333,0.244166667,1,0,0,target,388275,1,2024-10-10_12h17.20.917,visual search,2024.1.5,None,2024-10-10 12h17.27.538467 +0530
27,0,27,0,55.8675424,,55.8151803,10,55.8675424,55.8675424,0.0374493,56.8753157,,57.4429255,0.121666667,0.3825,1,0,0,target,388275,1,2024-10-10_12h17.20.917,visual search,2024.1.5,None,2024-10-10 12h17.27.538467 +0530
28,0,28,0,57.4717055,,57.445867,5,57.4717055,57.4717055,0.0172212,58.4754003,,59.0765611,-0.029166667,0.168333333,1,0,0,target,388275,1,2024-10-10_12h17.20.917,visual search,2024.1.5,None,2024-10-10 12h17.27.538467 +0530
29,0,29,0,59.1302806,,59.0803871,10,59.1302806,59.1302806,0.0342262,60.1420428,,60.7596942,0.165833333,-0.028333333,1,0,0,target,388275,1,2024-10-10_12h17.20.917,visual search,2024.1.5,None,2024-10-10 12h17.27.538467 +0530
30,0,30,0,60.8168552,,60.7627345,10,60.8168552,60.8168552,0.0335015,61.8303605,,62.016433,0.166666667,-0.095,1,0,0,target,388275,1,2024-10-10_12h17.20.917,visual search,2024.1.5,None,2024-10-10 12h17.27.538467 +0530
31,0,31,0,62.0777937,,62.0194509,10,62.0777937,62.0777937,0.0304179,63.0991172,,63.5078595,-0.196666667,-0.3125,1,0,0,target,388275,1,2024-10-10_12h17.20.917,visual search,2024.1.5,None,2024-10-10 12h17.27.538467 +0530
32,0,32,0,63.5777176,,63.5108832,10,63.5777176,63.5777176,0.032273,64.6130925,,65.4729555,0.485833333,-0.184166667,1,0,0,target,388275,1,2024-10-10_12h17.20.917,visual search,2024.1.5,None,2024-10-10 12h17.27.538467 +0530
33,0,33,0,65.5453248,,65.4764676,10,65.5453248,65.5453248,0.0310108,66.5823672,,68.8564067,-0.375833333,-0.1675,1,0,0,target,388275,1,2024-10-10_12h17.20.917,visual search,2024.1.5,None,2024-10-10 12h17.27.538467 +0530
34,0,34,0,68.9318142,,68.8596892,10,68.9318142,68.9318142,0.0296921,69.9880551,,70.4445219,0.424166667,-0.2425,1,0,0,target,388275,1,2024-10-10_12h17.20.917,visual search,2024.1.5,None,2024-10-10 12h17.27.538467 +0530
35,0,35,0,70.4714371,,70.4476376,5,70.4714371,70.4714371,0.0162807,71.4756707,,72.2624929,0.023333333,-0.215833333,1,0,0,target,388275,1,2024-10-10_12h17.20.917,visual search,2024.1.5,None,2024-10-10 12h17.27.538467 +0530
36,0,36,0,72.3168458,,72.2661512,10,72.3168458,72.3168458,0.0357563,73.3264294,,73.6934742,0.2125,-0.236666667,1,0,0,target,388275,1,2024-10-10_12h17.20.917,visual search,2024.1.5,None,2024-10-10 12h17.27.538467 +0530
37,0,37,0,73.7211124,,73.6965015,5,73.7211124,73.7211124,0.0170721,74.7259853,,76.327488,0.253333333,0.475,1,0,0,target,388275,1,2024-10-10_12h17.20.917,visual search,2024.1.5,None,2024-10-10 12h17.27.538467 +0530
38,0,38,0,76.3859565,,76.3311439,10,76.3859565,76.3859565,0.0396072,77.392453,,77.4933698,0.168333333,0.259166667,1,0,0,target,388275,1,2024-10-10_12h17.20.917,visual search,2024.1.5,None,2024-10-10 12h17.27.538467 +0530
39,0,39,0,77.547548,,77.496516,10,77.547548,77.547548,0.0314712,78.5556536,,79.1059595,-0.4175,0.128333333,1,0,0,target,388275,1,2024-10-10_12h17.20.917,visual search,2024.1.5,None,2024-10-10 12h17.27.538467 +0530
40,0,40,0,79.164454,,79.1091629,10,79.164454,79.164454,0.0293025,80.179932,,81.7993724,0.095,-0.480833333,1,0,0,target,388275,1,2024-10-10_12h17.20.917,visual search,2024.1.5,None,2024-10-10 12h17.27.538467 +0530
41,0,41,0,81.8651575,,81.8023087,10,81.8651575,81.8651575,0.0305508,82.9182104,,83.3416995,-0.23,-0.314166667,1,0,0,target,388275,1,2024-10-10_12h17.20.917,visual search,2024.1.5,None,2024-10-10 12h17.27.538467 +0530
42,0,42,0,83.4188554,,83.3447276,10,83.4188554,83.4188554,0.0296427,84.4607536,,84.7470286,-0.456666667,-0.003333333,1,0,0,target,388275,1,2024-10-10_12h17.20.917,visual search,2024.1.5,None,2024-10-10 12h17.27.538467 +0530
43,0,43,0,84.7744598,,84.750376,5,84.7744598,84.7744598,0.0161085,85.7760668,,87.6790059,-0.463333333,-0.209166667,1,0,0,target,388275,1,2024-10-10_12h17.20.917,visual search,2024.1.5,None,2024-10-10 12h17.27.538467 +0530
44,0,44,0,87.7331735,,87.6829092,10,87.7331735,87.7331735,0.0345893,88.7425943,,89.5999628,-0.000833333,-0.460833333,1,0,0,target,388275,1,2024-10-10_12h17.20.917,visual search,2024.1.5,None,2024-10-10 12h17.27.538467 +0530
45,0,45,0,89.6591386,,89.6029261,10,89.6591386,89.6591386,0.03054,90.6806896,,91.4587877,0.34,-0.196666667,1,0,0,target,388275,1,2024-10-10_12h17.20.917,visual search,2024.1.5,None,2024-10-10 12h17.27.538467 +0530
46,0,46,0,91.5234636,,91.4619497,10,91.5234636,91.5234636,0.0301839,92.5634832,,92.6129465,0.071666667,-0.048333333,1,0,0,target,388275,1,2024-10-10_12h17.20.917,visual search,2024.1.5,None,2024-10-10 12h17.27.538467 +0530
47,0,47,0,92.6508257,,92.6158533,5,92.6508257,92.6508257,0.0231328,93.6601641,,94.3457252,0.480833333,0.016666667,1,0,0,target,388275,1,2024-10-10_12h17.20.917,visual search,2024.1.5,None,2024-10-10 12h17.27.538467 +0530
48,0,48,0,94.4084141,,94.3509885,10,94.4084141,94.4084141,0.0378275,95.4138839,,95.7196607,-0.263333333,-0.0725,1,0,0,target,388275,1,2024-10-10_12h17.20.917,visual search,2024.1.5,None,2024-10-10 12h17.27.538467 +0530
49,0,49,0,95.769336,,95.7222914,10,95.769336,95.769336,0.0281747,96.7897655,,97.131125,-0.2225,0.125833333,1,0,0,,388275,1,2024-10-10_12h17.20.917,visual search,2024.1.5,None,2024-10-10 12h17.27.538467 +0530
50,0,50,0,97.1588399,,97.1337663,5,97.1588399,97.1588399,0.0168672,98.1602276,,98.4455087,0.185833333,0.170833333,1,0,0,,388275,1,2024-10-10_12h17.20.917,visual search,2024.1.5,None,2024-10-10 12h17.27.538467 +0530
51,0,51,0,98.5089641,,98.4489963,10,98.5089641,98.5089641,0.0393224,99.5095954,,99.8113258,0.045833333,0.114166667,1,0,0,target,388275,1,2024-10-10_12h17.20.917,visual search,2024.1.5,None,2024-10-10 12h17.27.538467 +0530
52,0,52,0,99.8422875,,99.814426,5,99.8422875,99.8422875,0.0157101,100.8428371,,101.3618994,0.2975,0.244166667,1,0,0,target,388275,1,2024-10-10_12h17.20.917,visual search,2024.1.5,None,2024-10-10 12h17.27.538467 +0530
53,0,53,0,101.4220894,,101.3667781,10,101.4220894,101.4220894,0.035204,102.4342892,,103.327581,-0.393333333,-0.056666667,1,0,0,target,388275,1,2024-10-10_12h17.20.917,visual search,2024.1.5,None,2024-10-10 12h17.27.538467 +0530
54,0,54,0,103.3627556,,103.3303795,5,103.3627556,103.3627556,0.0178832,104.3763592,,105.5786207,-0.0825,-0.058333333,1,0,0,target,388275,1,2024-10-10_12h17.20.917,visual search,2024.1.5,None,2024-10-10 12h17.27.538467 +0530
55,0,55,0,105.6382613,,105.5831599,10,105.6382613,105.6382613,0.0330678,106.6536549,,107.1938989,0.368333333,-0.343333333,1,0,0,target,388275,1,2024-10-10_12h17.20.917,visual search,2024.1.5,None,2024-10-10 12h17.27.538467 +0530
56,0,56,0,107.2252601,,107.1967673,5,107.2252601,107.2252601,0.0166014,108.2269965,,113.9799962,-0.491666667,0.5,1,0,0,target,388275,1,2024-10-10_12h17.20.917,visual search,2024.1.5,None,2024-10-10 12h17.27.538467 +0530
57,0,57,0,114.0363744,,113.9838958,10,114.0363744,114.0363744,0.0334797,115.0581526,,115.6939932,0.213333333,0.434166667,1,0,0,target,388275,1,2024-10-10_12h17.20.917,visual search,2024.1.5,None,2024-10-10 12h17.27.538467 +0530
58,0,58,0,115.7260435,,115.6970344,5,115.7260435,115.7260435,0.0161063,116.7265521,,117.5292034,-0.196666667,-0.23,1,0,0,target,388275,1,2024-10-10_12h17.20.917,visual search,2024.1.5,None,2024-10-10 12h17.27.538467 +0530
59,0,59,0,117.5598804,,117.5330682,5,117.5598804,117.5598804,0.017954,118.5607651,,119.6284135,-0.379166667,0.255,1,0,0,,388275,1,2024-10-10_12h17.20.917,visual search,2024.1.5,None,2024-10-10 12h17.27.538467 +0530
60,0,60,0,119.6857146,,119.6322658,10,119.6857146,119.6857146,0.0365535,120.6973527,,121.2448614,0.033333333,-0.099166667,1,0,0,target,388275,1,2024-10-10_12h17.20.917,visual search,2024.1.5,None,2024-10-10 12h17.27.538467 +0530
61,0,61,0,121.3018525,,121.2480165,10,121.3018525,121.3018525,0.0286733,122.3218287,,122.7149922,-0.264166667,0.291666667,1,0,0,target,388275,1,2024-10-10_12h17.20.917,visual search,2024.1.5,None,2024-10-10 12h17.27.538467 +0530
62,0,62,0,122.7856171,,122.7202263,10,122.7856171,122.7856171,0.0328666,123.8192864,,125.4506783,0.3175,0.043333333,1,0,0,target,388275,1,2024-10-10_12h17.20.917,visual search,2024.1.5,None,2024-10-10 12h17.27.538467 +0530
63,0,63,0,125.5191426,,125.453855,10,125.5191426,125.5191426,0.0328502,126.5586034,,129.2849075,0.313333333,-0.403333333,1,0,0,,388275,1,2024-10-10_12h17.20.917,visual search,2024.1.5,None,2024-10-10 12h17.27.538467 +0530
64,0,64,0,129.318312,,129.2932817,5,129.318312,129.318312,0.0161362,130.3267939,,130.8137478,-0.19,0.135,1,0,0,target,388275,1,2024-10-10_12h17.20.917,visual search,2024.1.5,None,2024-10-10 12h17.27.538467 +0530
65,0,65,0,130.8475856,,130.8189445,5,130.8475856,130.8475856,0.0203209,131.8602806,,132.0786081,-0.16,0.189166667,1,0,0,target,388275,1,2024-10-10_12h17.20.917,visual search,2024.1.5,None,2024-10-10 12h17.27.538467 +0530
66,0,66,0,132.1089101,,132.0832883,5,132.1089101,132.1089101,0.0183705,133.1106975,,133.4289944,0.41,0.079166667,1,0,0,target,388275,1,2024-10-10_12h17.20.917,visual search,2024.1.5,None,2024-10-10 12h17.27.538467 +0530
67,0,67,0,133.4582815,,133.4328094,5,133.4582815,133.4582815,0.0173732,134.4609184,,135.345465,-0.309166667,0.470833333,1,0,0,target,388275,1,2024-10-10_12h17.20.917,visual search,2024.1.5,None,2024-10-10 12h17.27.538467 +0530
68,0,68,0,135.4078077,,135.3496922,10,135.4078077,135.4078077,0.0383208,136.4102413,,136.4487706,-0.125,0.356666667,1,0,0,target,388275,1,2024-10-10_12h17.20.917,visual search,2024.1.5,None,2024-10-10 12h17.27.538467 +0530
69,0,69,0,136.4769074,,136.4515869,5,136.4769074,136.4769074,0.0162267,137.4769509,,138.0301794,0.3575,0.154166667,1,0,0,target,388275,1,2024-10-10_12h17.20.917,visual search,2024.1.5,None,2024-10-10 12h17.27.538467 +0530
70,0,70,0,138.0833083,,138.0348592,10,138.0833083,138.0833083,0.0334922,139.0936543,,139.8785235,0.366666667,-0.375833333,1,0,0,target,388275,1,2024-10-10_12h17.20.917,visual search,2024.1.5,None,2024-10-10 12h17.27.538467 +0530
71,0,71,0,139.9053849,,139.8813426,5,139.9053849,139.9053849,0.0160456,140.9105183,,141.6640441,0.175833333,-0.441666667,1,0,0,target,388275,1,2024-10-10_12h17.20.917,visual search,2024.1.5,None,2024-10-10 12h17.27.538467 +0530
72,0,72,0,141.726572,,141.6686035,10,141.726572,141.726572,0.0377927,142.7416091,,143.111286,-0.31,-0.1675,1,0,0,target,388275,1,2024-10-10_12h17.20.917,visual search,2024.1.5,None,2024-10-10 12h17.27.538467 +0530
73,0,73,0,143.1391568,,143.114132,5,143.1391568,143.1391568,0.0163441,144.1438202,,144.713017,0.051666667,0.415,1,0,0,target,388275,1,2024-10-10_12h17.20.917,visual search,2024.1.5,None,2024-10-10 12h17.27.538467 +0530
74,0,74,0,144.7620992,,144.7165643,10,144.7620992,144.7620992,0.0312643,145.7704789,,146.0950199,-0.043333333,0.171666667,1,0,0,target,388275,1,2024-10-10_12h17.20.917,visual search,2024.1.5,None,2024-10-10 12h17.27.538467 +0530
75,0,75,0,146.127054,,146.0982097,5,146.127054,146.127054,0.0169536,147.1272766,,147.7300864,-0.128333333,-0.4225,1,0,0,,388275,1,2024-10-10_12h17.20.917,visual search,2024.1.5,None,2024-10-10 12h17.27.538467 +0530
76,0,76,0,147.7598511,,147.7339191,5,147.7598511,147.7598511,0.017842,148.7612783,,149.2789522,-0.116666667,0.250833333,1,0,0,,388275,1,2024-10-10_12h17.20.917,visual search,2024.1.5,None,2024-10-10 12h17.27.538467 +0530
77,0,77,0,149.3475725,,149.2819383,10,149.3475725,149.3475725,0.0423471,150.36371,,150.8452346,0.1825,-0.180833333,1,0,0,,388275,1,2024-10-10_12h17.20.917,visual search,2024.1.5,None,2024-10-10 12h17.27.538467 +0530
78,0,78,0,150.9038149,,150.8479568,10,150.9038149,150.9038149,0.03132,151.9257163,,152.9595156,-0.2425,0.4125,1,0,0,target,388275,1,2024-10-10_12h17.20.917,visual search,2024.1.5,None,2024-10-10 12h17.27.538467 +0530
79,0,79,0,152.9885681,,152.9625434,5,152.9885681,152.9885681,0.0161319,153.9941796,,154.6300265,-0.2975,-0.4575,1,0,0,,388275,1,2024-10-10_12h17.20.917,visual search,2024.1.5,None,2024-10-10 12h17.27.538467 +0530
80,0,80,0,154.6604295,,154.6333802,5,154.6604295,154.6604295,0.016474,155.6613262,,156.3466022,-0.336666667,0.421666667,1,0,0,,388275,1,2024-10-10_12h17.20.917,visual search,2024.1.5,None,2024-10-10 12h17.27.538467 +0530
81,0,81,0,156.3803017,,156.350492,5,156.3803017,156.3803017,0.0177584,157.3946742,,158.0620963,0.361666667,-0.430833333,1,0,0,target,388275,1,2024-10-10_12h17.20.917,visual search,2024.1.5,None,2024-10-10 12h17.27.538467 +0530
82,0,82,0,158.1166155,,158.0658448,10,158.1166155,158.1166155,0.0324438,159.1187303,,159.5301419,0.061666667,0.065833333,1,0,0,target,388275,1,2024-10-10_12h17.20.917,visual search,2024.1.5,None,2024-10-10 12h17.27.538467 +0530
83,0,83,0,159.6030254,,159.5327917,10,159.6030254,159.6030254,0.0392518,160.6127852,,160.9973144,-0.269166667,0.055833333,1,0,0,target,388275,1,2024-10-10_12h17.20.917,visual search,2024.1.5,None,2024-10-10 12h17.27.538467 +0530
84,0,84,0,161.0624726,,161.0000071,10,161.0624726,161.0624726,0.0305326,162.0774785,,164.0901519,0.245,0.455,1,0,0,target,388275,1,2024-10-10_12h17.20.917,visual search,2024.1.5,None,2024-10-10 12h17.27.538467 +0530
85,0,85,0,164.1655423,,164.0930543,10,164.1655423,164.1655423,0.0425395,165.209369,,166.2951753,-0.085833333,-0.4075,1,0,0,target,388275,1,2024-10-10_12h17.20.917,visual search,2024.1.5,None,2024-10-10 12h17.27.538467 +0530
86,0,86,0,166.3246694,,166.2988283,5,166.3246694,166.3246694,0.0171678,167.3276786,,168.1472701,-0.4825,-0.258333333,1,0,0,target,388275,1,2024-10-10_12h17.20.917,visual search,2024.1.5,None,2024-10-10 12h17.27.538467 +0530
87,0,87,0,168.1774675,,168.1523964,5,168.1774675,168.1774675,0.0179481,169.177614,,170.1969713,0.250833333,0.320833333,1,0,0,target,388275,1,2024-10-10_12h17.20.917,visual search,2024.1.5,None,2024-10-10 12h17.27.538467 +0530
88,0,88,0,170.2267571,,170.2010987,5,170.2267571,170.2267571,0.0183679,171.2277799,,172.7961678,0.004166667,0.390833333,1,0,0,target,388275,1,2024-10-10_12h17.20.917,visual search,2024.1.5,None,2024-10-10 12h17.27.538467 +0530
89,0,89,0,172.8321091,,172.8010847,5,172.8321091,172.8321091,0.0218286,173.8445098,,174.2126309,0.299166667,0.093333333,1,0,0,target,388275,1,2024-10-10_12h17.20.917,visual search,2024.1.5,None,2024-10-10 12h17.27.538467 +0530
90,0,90,0,174.2425814,,174.2169774,5,174.2425814,174.2425814,0.0176108,175.2446414,,176.213781,-0.240833333,-0.3575,1,0,0,target,388275,1,2024-10-10_12h17.20.917,visual search,2024.1.5,None,2024-10-10 12h17.27.538467 +0530
91,0,91,0,176.2701262,,176.219837,10,176.2701262,176.2701262,0.0357955,177.2733373,,178.3120978,0.369166667,0.388333333,1,0,0,,388275,1,2024-10-10_12h17.20.917,visual search,2024.1.5,None,2024-10-10 12h17.27.538467 +0530
92,0,92,0,178.3707854,,178.3147794,10,178.3707854,178.3707854,0.0308435,179.3940926,,179.8217334,-0.333333333,0.195,1,0,0,target,388275,1,2024-10-10_12h17.20.917,visual search,2024.1.5,None,2024-10-10 12h17.27.538467 +0530
93,0,93,0,179.8503319,,179.8247173,5,179.8503319,179.8503319,0.0174755,180.8617341,,181.0969871,0.005,-0.1575,1,0,0,target,388275,1,2024-10-10_12h17.20.917,visual search,2024.1.5,None,2024-10-10 12h17.27.538467 +0530
94,0,94,0,181.1343457,,181.1023963,5,181.1343457,181.1343457,0.0201026,182.1445117,,182.897532,0.275,-0.449166667,1,0,0,target,388275,1,2024-10-10_12h17.20.917,visual search,2024.1.5,None,2024-10-10 12h17.27.538467 +0530
95,0,95,0,182.9542136,,182.9027475,10,182.9542136,182.9542136,0.0360462,183.9615473,,184.2122483,-0.46,-0.3775,1,0,0,target,388275,1,2024-10-10_12h17.20.917,visual search,2024.1.5,None,2024-10-10 12h17.27.538467 +0530
96,0,96,0,184.2698863,,184.2152166,10,184.2698863,184.2698863,0.030565,185.2876103,,185.6100971,0.309166667,-0.1975,1,0,0,target,388275,1,2024-10-10_12h17.20.917,visual search,2024.1.5,None,2024-10-10 12h17.27.538467 +0530
97,0,97,0,185.6391726,,185.6130144,5,185.6391726,185.6391726,0.0155678,186.6446553,,187.6643223,0.023333333,0.43,1,0,0,target,388275,1,2024-10-10_12h17.20.917,visual search,2024.1.5,None,2024-10-10 12h17.27.538467 +0530
98,0,98,0,187.7201031,,187.669678,10,187.7201031,187.7201031,0.0347428,188.7163524,,189.1956318,-0.350833333,0.36,1,0,0,target,388275,1,2024-10-10_12h17.20.917,visual search,2024.1.5,None,2024-10-10 12h17.27.538467 +0530
99,0,99,0,189.2233584,,189.1985095,5,189.2233584,189.2233584,0.0166626,190.2283552,,190.6139821,0.391666667,0.215,1,0,0,target,388275,1,2024-10-10_12h17.20.917,visual search,2024.1.5,None,2024-10-10 12h17.27.538467 +0530
100,0,100,0,190.6471653,,190.6188981,5,190.6471653,190.6471653,0.0187555,191.6624368,,192.0137636,0.256666667,-0.085,1,0,0,target,388275,1,2024-10-10_12h17.20.917,visual search,2024.1.5,None,2024-10-10 12h17.27.538467 +0530
101,0,101,0,192.0460155,,192.018282,5,192.0460155,192.0460155,0.0193225,193.0449163,,193.3969212,0.220833333,0.288333333,1,0,0,target,388275,1,2024-10-10_12h17.20.917,visual search,2024.1.5,None,2024-10-10 12h17.27.538467 +0530
102,0,102,0,193.4553007,,193.4008952,10,193.4553007,193.4553007,0.0337785,194.4616952,,194.9961096,-0.001666667,0.454166667,1,0,0,target,388275,1,2024-10-10_12h17.20.917,visual search,2024.1.5,None,2024-10-10 12h17.27.538467 +0530
103,0,103,0,195.0518898,,194.9995531,10,195.0518898,195.0518898,0.031137,196.0540464,,196.4287402,-0.114166667,-0.045833333,1,0,0,target,388275,1,2024-10-10_12h17.20.917,visual search,2024.1.5,None,2024-10-10 12h17.27.538467 +0530
104,0,104,0,196.4659171,,196.4318118,5,196.4659171,196.4659171,0.0195118,197.4782748,,197.9639753,-0.035833333,0.136666667,1,0,0,,388275,1,2024-10-10_12h17.20.917,visual search,2024.1.5,None,2024-10-10 12h17.27.538467 +0530
105,0,105,0,197.9988423,,197.9678649,5,197.9988423,197.9988423,0.0181,199.0118136,,200.2314483,-0.033333333,0.443333333,1,0,0,target,388275,1,2024-10-10_12h17.20.917,visual search,2024.1.5,None,2024-10-10 12h17.27.538467 +0530
106,0,106,0,200.2881367,,200.2356715,10,200.2881367,200.2881367,0.0315323,201.2921402,,202.3822464,0.399166667,-0.2825,1,0,0,target,388275,1,2024-10-10_12h17.20.917,visual search,2024.1.5,None,2024-10-10 12h17.27.538467 +0530
107,0,107,0,202.4445651,,202.3852801,10,202.4445651,202.4445651,0.0318164,203.4608507,,204.3709578,0.08,0.0375,1,0,0,target,388275,1,2024-10-10_12h17.20.917,visual search,2024.1.5,None,2024-10-10 12h17.27.538467 +0530
108,0,108,0,204.3986234,,204.3738228,5,204.3986234,204.3986234,0.016098,205.4117933,,205.9975474,0.32,0.063333333,1,0,0,target,388275,1,2024-10-10_12h17.20.917,visual search,2024.1.5,None,2024-10-10 12h17.27.538467 +0530
109,0,109,0,206.0261417,,206.0012269,5,206.0261417,206.0261417,0.017644,207.0291338,,207.0647268,0.319166667,0.2175,1,0,0,target,388275,1,2024-10-10_12h17.20.917,visual search,2024.1.5,None,2024-10-10 12h17.27.538467 +0530
110,0,110,0,207.0948536,,207.0693519,5,207.0948536,207.0948536,0.0181604,208.096398,,208.4637866,-0.298333333,0.22,1,0,0,target,388275,1,2024-10-10_12h17.20.917,visual search,2024.1.5,None,2024-10-10 12h17.27.538467 +0530
111,0,111,0,208.494955,,208.4686709,5,208.494955,208.494955,0.0190058,209.4952377,,210.781369,-0.326666667,-0.405,1,0,0,target,388275,1,2024-10-10_12h17.20.917,visual search,2024.1.5,None,2024-10-10 12h17.27.538467 +0530
112,0,112,0,210.8205376,,210.7865728,5,210.8205376,210.8205376,0.023272,211.8287974,,212.7159804,-0.365,0.030833333,1,0,0,target,388275,1,2024-10-10_12h17.20.917,visual search,2024.1.5,None,2024-10-10 12h17.27.538467 +0530
113,0,113,0,212.7503472,,212.7210677,5,212.7503472,212.7503472,0.0215621,213.7623605,,213.8974678,-0.269166667,0.034166667,1,0,0,target,388275,1,2024-10-10_12h17.20.917,visual search,2024.1.5,None,2024-10-10 12h17.27.538467 +0530
114,0,114,0,213.9565251,,213.9025875,10,213.9565251,213.9565251,0.0362651,214.962218,,216.050997,-0.1175,0.23,1,0,0,target,388275,1,2024-10-10_12h17.20.917,visual search,2024.1.5,None,2024-10-10 12h17.27.538467 +0530
115,0,115,0,216.0818384,,216.0538107,5,216.0818384,216.0818384,0.0200184,217.0957854,,217.6151145,-0.365,0.146666667,1,0,0,target,388275,1,2024-10-10_12h17.20.917,visual search,2024.1.5,None,2024-10-10 12h17.27.538467 +0530
116,0,116,0,217.670467,,217.6196666,10,217.670467,217.670467,0.0353468,218.67797,,219.4135265,0.225833333,-0.430833333,1,0,0,target,388275,1,2024-10-10_12h17.20.917,visual search,2024.1.5,None,2024-10-10 12h17.27.538467 +0530
117,0,117,0,219.4421555,,219.4164763,5,219.4421555,219.4421555,0.0172572,220.4456994,,220.5819313,-0.36,-0.1375,1,0,0,target,388275,1,2024-10-10_12h17.20.917,visual search,2024.1.5,None,2024-10-10 12h17.27.538467 +0530
118,0,118,0,220.6149664,,220.5861866,5,220.6149664,220.6149664,0.0196744,221.6289542,,222.3477497,0.471666667,0.3625,1,0,0,target,388275,1,2024-10-10_12h17.20.917,visual search,2024.1.5,None,2024-10-10 12h17.27.538467 +0530
119,0,119,0,222.3992071,,222.3516567,10,222.3992071,222.3992071,0.0326183,223.4034554,,223.7501304,0.13,0.140833333,1,0,0,target,388275,1,2024-10-10_12h17.20.917,visual search,2024.1.5,None,2024-10-10 12h17.27.538467 +0530
120,0,120,0,223.7784609,,223.7530757,5,223.7784609,223.7784609,0.0150128,224.7793852,,225.2667295,-0.368333333,-0.004166667,1,0,0,target,388275,1,2024-10-10_12h17.20.917,visual search,2024.1.5,None,2024-10-10 12h17.27.538467 +0530
121,0,121,0,225.3248665,,225.2710642,10,225.3248665,225.3248665,0.0399184,226.3289738,,226.7139353,-0.315,0.2875,1,0,0,target,388275,1,2024-10-10_12h17.20.917,visual search,2024.1.5,None,2024-10-10 12h17.27.538467 +0530
122,0,122,0,226.76505,,226.7171479,10,226.76505,226.76505,0.0288484,227.7955519,,228.2535665,-0.270833333,0.415833333,1,0,0,target,388275,1,2024-10-10_12h17.20.917,visual search,2024.1.5,None,2024-10-10 12h17.27.538467 +0530
123,0,123,0,228.280508,,228.2565902,5,228.280508,228.280508,0.0155675,229.2959948,,229.6647736,-0.093333333,-0.186666667,1,0,0,target,388275,1,2024-10-10_12h17.20.917,visual search,2024.1.5,None,2024-10-10 12h17.27.538467 +0530
124,0,124,0,229.6932647,,229.66845,5,229.6932647,229.6932647,0.0174549,230.6959102,,231.2155843,0.274166667,-0.226666667,1,0,0,target,388275,1,2024-10-10_12h17.20.917,visual search,2024.1.5,None,2024-10-10 12h17.27.538467 +0530
125,0,125,0,231.2709669,,231.2252075,10,231.2709669,231.2709669,0.0304785,232.2700442,,232.6298138,-0.045833333,-0.124166667,1,0,0,target,388275,1,2024-10-10_12h17.20.917,visual search,2024.1.5,None,2024-10-10 12h17.27.538467 +0530
126,0,126,0,232.6880832,,232.6328419,10,232.6880832,232.6880832,0.031447,233.6911305,,234.5989784,0.176666667,-0.419166667,1,0,0,target,388275,1,2024-10-10_12h17.20.917,visual search,2024.1.5,None,2024-10-10 12h17.27.538467 +0530
127,0,127,0,234.6263279,,234.6025343,5,234.6263279,234.6263279,0.0166649,235.6292571,,236.3983518,0.094166667,0.3275,1,0,0,target,388275,1,2024-10-10_12h17.20.917,visual search,2024.1.5,None,2024-10-10 12h17.27.538467 +0530
128,0,128,0,236.4295715,,236.4032654,5,236.4295715,236.4295715,0.0182306,237.4291962,,238.2976662,-0.055,-0.480833333,1,0,0,target,388275,1,2024-10-10_12h17.20.917,visual search,2024.1.5,None,2024-10-10 12h17.27.538467 +0530
129,0,129,0,238.3301189,,238.3024336,5,238.3301189,238.3301189,0.0187609,239.3290765,,240.1139482,-0.045833333,0.035,1,0,0,target,388275,1,2024-10-10_12h17.20.917,visual search,2024.1.5,None,2024-10-10 12h17.27.538467 +0530
130,0,130,0,240.1672335,,240.1176093,10,240.1672335,240.1672335,0.033442,241.1794029,,243.0138857,0.0825,0.413333333,1,0,0,target,388275,1,2024-10-10_12h17.20.917,visual search,2024.1.5,None,2024-10-10 12h17.27.538467 +0530
131,0,131,0,243.041457,,243.0169111,5,243.041457,243.041457,0.0169228,244.0461868,,244.8647093,0.4,-0.475833333,1,0,0,target,388275,1,2024-10-10_12h17.20.917,visual search,2024.1.5,None,2024-10-10 12h17.27.538467 +0530
132,0,132,0,244.8968778,,244.8689073,5,244.8968778,244.8968778,0.018576,245.8961084,,246.5309983,-0.099166667,-0.3775,1,0,0,target,388275,1,2024-10-10_12h17.20.917,visual search,2024.1.5,None,2024-10-10 12h17.27.538467 +0530
133,0,133,0,246.5626933,,246.5355972,5,246.5626933,246.5626933,0.0181779,247.5633916,,249.0147368,0.338333333,-0.194166667,1,0,0,,388275,1,2024-10-10_12h17.20.917,visual search,2024.1.5,None,2024-10-10 12h17.27.538467 +0530
134,0,134,0,249.0711801,,249.0184248,10,249.0711801,249.0711801,0.033211,250.0802184,,250.1473302,0.158333333,-0.0225,1,0,0,target,388275,1,2024-10-10_12h17.20.917,visual search,2024.1.5,None,2024-10-10 12h17.27.538467 +0530
135,0,135,0,250.1753264,,250.1503632,5,250.1753264,250.1753264,0.0168371,251.1798158,,251.7147417,0.401666667,0.3275,1,0,0,target,388275,1,2024-10-10_12h17.20.917,visual search,2024.1.5,None,2024-10-10 12h17.27.538467 +0530
136,0,136,0,251.7723348,,251.7190056,10,251.7723348,251.7723348,0.0327821,252.7878621,,253.3469327,-0.045,-0.103333333,1,0,0,target,388275,1,2024-10-10_12h17.20.917,visual search,2024.1.5,None,2024-10-10 12h17.27.538467 +0530
137,0,137,0,253.3744469,,253.3497573,5,253.3744469,253.3744469,0.017035,254.3794325,,254.6656536,0.408333333,0.079166667,1,0,0,,388275,1,2024-10-10_12h17.20.917,visual search,2024.1.5,None,2024-10-10 12h17.27.538467 +0530
138,0,138,0,254.7197115,,254.669782,10,254.7197115,254.7197115,0.0305001,255.7179912,,256.453384,-0.038333333,0.390833333,1,0,0,target,388275,1,2024-10-10_12h17.20.917,visual search,2024.1.5,None,2024-10-10 12h17.27.538467 +0530
139,0,139,0,256.5068322,,256.4563417,10,256.5068322,256.5068322,0.0305417,257.5110255,,257.8140314,0.4025,0.076666667,1,0,0,,388275,1,2024-10-10_12h17.20.917,visual search,2024.1.5,None,2024-10-10 12h17.27.538467 +0530
140,0,140,0,257.839653,,257.8164452,5,257.839653,257.839653,0.015336,258.8463916,,259.4002346,-0.335,0.049166667,1,0,0,target,388275,1,2024-10-10_12h17.20.917,visual search,2024.1.5,None,2024-10-10 12h17.27.538467 +0530
141,0,141,0,259.4640187,,259.4046743,10,259.4640187,259.4640187,0.0364388,260.4798527,,260.7974909,0.480833333,-0.2575,1,0,0,target,388275,1,2024-10-10_12h17.20.917,visual search,2024.1.5,None,2024-10-10 12h17.27.538467 +0530
142,0,142,0,260.8311165,,260.8005837,5,260.8311165,260.8311165,0.016275,261.8467089,,262.0656601,0.0925,0.153333333,1,0,0,target,388275,1,2024-10-10_12h17.20.917,visual search,2024.1.5,None,2024-10-10 12h17.27.538467 +0530
143,0,143,0,262.1182624,,262.0698058,10,262.1182624,262.1182624,0.0332036,263.1358451,,263.6987983,-0.284166667,-0.228333333,1,0,0,target,388275,1,2024-10-10_12h17.20.917,visual search,2024.1.5,None,2024-10-10 12h17.27.538467 +0530
144,0,144,0,263.7540633,,263.7015383,10,263.7540633,263.7540633,0.0291902,264.7781067,,265.228125,0.326666667,0.158333333,1,0,0,target,388275,1,2024-10-10_12h17.20.917,visual search,2024.1.5,None,2024-10-10 12h17.27.538467 +0530
145,0,145,0,265.2640036,,265.2313151,5,265.2640036,265.2640036,0.0177062,266.2641716,,266.5998679,-0.266666667,0.2775,1,0,0,,388275,1,2024-10-10_12h17.20.917,visual search,2024.1.5,None,2024-10-10 12h17.27.538467 +0530
146,0,146,0,266.6554129,,266.6039518,10,266.6554129,266.6554129,0.0338446,267.6632107,,268.0806803,-0.261666667,-0.290833333,1,0,0,target,388275,1,2024-10-10_12h17.20.917,visual search,2024.1.5,None,2024-10-10 12h17.27.538467 +0530
147,0,147,0,268.1100315,,268.0836402,5,268.1100315,268.1100315,0.0175585,269.1133304,,269.3325266,0.200833333,-0.180833333,1,0,0,,388275,1,2024-10-10_12h17.20.917,visual search,2024.1.5,None,2024-10-10 12h17.27.538467 +0530
148,0,148,0,269.3926408,,269.3360381,10,269.3926408,269.3926408,0.0349475,270.3955081,,271.1644896,-0.290833333,0.3425,1,0,0,,388275,1,2024-10-10_12h17.20.917,visual search,2024.1.5,None,2024-10-10 12h17.27.538467 +0530
149,0,149,0,271.1937099,,271.1672092,5,271.1937099,271.1937099,0.0171761,272.1964822,,272.4160288,0.1025,0.3125,1,0,0,target,388275,1,2024-10-10_12h17.20.917,visual search,2024.1.5,None,2024-10-10 12h17.27.538467 +0530
150,0,150,0,272.4696768,,272.4198612,10,272.4696768,272.4696768,0.0335409,273.4804022,,273.671126,0.069166667,0.008333333,1,0,0,target,388275,1,2024-10-10_12h17.20.917,visual search,2024.1.5,None,2024-10-10 12h17.27.538467 +0530
151,0,151,0,273.7009892,,273.6740754,5,273.7009892,273.7009892,0.0168513,274.7137879,,275.6155179,0.2925,-0.406666667,1,0,0,target,388275,1,2024-10-10_12h17.20.917,visual search,2024.1.5,None,2024-10-10 12h17.27.538467 +0530
152,0,152,0,275.6523974,,275.6200604,5,275.6523974,275.6523974,0.0190762,276.6633376,,277.0154839,-0.146666667,0.356666667,1,0,0,target,388275,1,2024-10-10_12h17.20.917,visual search,2024.1.5,None,2024-10-10 12h17.27.538467 +0530
153,0,153,0,277.0550764,,277.0203682,5,277.0550764,277.0550764,0.0227221,278.0641986,,278.4821475,0.483333333,0.453333333,1,0,0,target,388275,1,2024-10-10_12h17.20.917,visual search,2024.1.5,None,2024-10-10 12h17.27.538467 +0530
154,0,154,0,278.5378281,,278.48663,10,278.5378281,278.5378281,0.0347028,279.546753,,279.7640733,-0.035833333,-0.303333333,1,0,0,,388275,1,2024-10-10_12h17.20.917,visual search,2024.1.5,None,2024-10-10 12h17.27.538467 +0530
155,0,155,0,279.8229801,,279.7667751,10,279.8229801,279.8229801,0.0303553,280.8559952,,281.1963871,0.405833333,0.076666667,1,0,0,target,388275,1,2024-10-10_12h17.20.917,visual search,2024.1.5,None,2024-10-10 12h17.27.538467 +0530
156,0,156,0,281.2242142,,281.1994017,5,281.2242142,281.2242142,0.0159136,282.2300829,,282.4159635,-0.196666667,-0.0525,1,0,0,,388275,1,2024-10-10_12h17.20.917,visual search,2024.1.5,None,2024-10-10 12h17.27.538467 +0530
157,0,157,0,282.4503623,,282.4199533,5,282.4503623,282.4503623,0.0186661,283.463542,,284.1649022,0.013333333,0.4925,1,0,0,target,388275,1,2024-10-10_12h17.20.917,visual search,2024.1.5,None,2024-10-10 12h17.27.538467 +0530
158,0,158,0,284.2028079,,284.1697901,5,284.2028079,284.2028079,0.0243934,285.2133827,,285.7819627,0.375833333,0.175833333,1,0,0,target,388275,1,2024-10-10_12h17.20.917,visual search,2024.1.5,None,2024-10-10 12h17.27.538467 +0530
159,0,159,0,285.8194781,,285.785818,5,285.8194781,285.8194781,0.0219876,286.8301435,,287.5486279,0.45,0.285,1,0,0,target,388275,1,2024-10-10_12h17.20.917,visual search,2024.1.5,None,2024-10-10 12h17.27.538467 +0530
160,0,160,0,287.6015736,,287.5535432,10,287.6015736,287.6015736,0.0329557,288.6140535,,288.9649389,-0.1125,0.165833333,1,0,0,target,388275,1,2024-10-10_12h17.20.917,visual search,2024.1.5,None,2024-10-10 12h17.27.538467 +0530
161,0,161,0,288.9963069,,288.967888,5,288.9963069,288.9963069,0.0167539,289.9968549,,290.44879,-0.319166667,0.130833333,1,0,0,target,388275,1,2024-10-10_12h17.20.917,visual search,2024.1.5,None,2024-10-10 12h17.27.538467 +0530
162,0,162,0,290.5051342,,290.4528884,10,290.5051342,290.5051342,0.03393,291.5276916,,292.0145598,-0.3025,0.391666667,1,0,0,target,388275,1,2024-10-10_12h17.20.917,visual search,2024.1.5,None,2024-10-10 12h17.27.538467 +0530
163,0,163,0,292.0744696,,292.0176123,10,292.0744696,292.0744696,0.0315138,293.1010638,,294.60337,0.053333333,-0.03,1,0,0,,388275,1,2024-10-10_12h17.20.917,visual search,2024.1.5,None,2024-10-10 12h17.27.538467 +0530
164,0,164,0,294.6329399,,294.6073228,5,294.6329399,294.6329399,0.0174913,295.6470191,,295.916028,-0.36,-0.015833333,1,0,0,target,388275,1,2024-10-10_12h17.20.917,visual search,2024.1.5,None,2024-10-10 12h17.27.538467 +0530
165,0,165,0,295.9458958,,295.9200437,5,295.9458958,295.9458958,0.0183043,296.9469556,,297.5164713,0.1375,-0.3225,1,0,0,target,388275,1,2024-10-10_12h17.20.917,visual search,2024.1.5,None,2024-10-10 12h17.27.538467 +0530
166,0,166,0,297.5666094,,297.5201459,10,297.5666094,297.5666094,0.0304591,298.5832547,,299.2316972,-0.2875,-0.294166667,1,0,0,target,388275,1,2024-10-10_12h17.20.917,visual search,2024.1.5,None,2024-10-10 12h17.27.538467 +0530
167,0,167,0,299.2904092,,299.2347418,10,299.2904092,299.2904092,0.0303974,300.2988026,,300.6572612,-0.1175,0.066666667,1,0,0,target,388275,1,2024-10-10_12h17.20.917,visual search,2024.1.5,None,2024-10-10 12h17.27.538467 +0530
168,0,168,0,300.6915448,,300.6601779,5,300.6915448,300.6915448,0.0185294,301.6975966,,302.0501926,-0.416666667,0.234166667,1,0,0,,388275,1,2024-10-10_12h17.20.917,visual search,2024.1.5,None,2024-10-10 12h17.27.538467 +0530
169,0,169,0,302.2072951,,302.0542107,10,302.2072951,302.2072951,0.1327599,303.2140124,,303.6501589,0.3725,0.254166667,1,0,0,target,388275,1,2024-10-10_12h17.20.917,visual search,2024.1.5,None,2024-10-10 12h17.27.538467 +0530
170,0,170,0,303.6786819,,303.6530372,5,303.6786819,303.6786819,0.0160531,304.6805161,,305.2998061,-0.428333333,0.446666667,1,0,0,target,388275,1,2024-10-10_12h17.20.917,visual search,2024.1.5,None,2024-10-10 12h17.27.538467 +0530
171,0,171,0,305.3357273,,305.3043937,5,305.3357273,305.3357273,0.0181188,306.3473945,,306.7676693,-0.2575,-0.195833333,1,0,0,target,388275,1,2024-10-10_12h17.20.917,visual search,2024.1.5,None,2024-10-10 12h17.27.538467 +0530
172,0,172,0,306.8004622,,306.772226,5,306.8004622,306.8004622,0.0191607,307.8139044,,308.1157869,-0.3525,0.045833333,1,0,0,target,388275,1,2024-10-10_12h17.20.917,visual search,2024.1.5,None,2024-10-10 12h17.27.538467 +0530
173,0,173,0,308.148967,,308.1214818,5,308.148967,308.148967,0.0198207,309.1640731,,309.4163474,0.110833333,-0.213333333,1,0,0,target,388275,1,2024-10-10_12h17.20.917,visual search,2024.1.5,None,2024-10-10 12h17.27.538467 +0530
174,0,174,0,309.4682487,,309.4204096,10,309.4682487,309.4682487,0.0325431,310.4718378,,311.1316756,0.264166667,0.3225,1,0,0,target,388275,1,2024-10-10_12h17.20.917,visual search,2024.1.5,None,2024-10-10 12h17.27.538467 +0530
175,0,175,0,311.16313,,311.1346291,5,311.16313,311.16313,0.0161617,312.1647777,,312.6341585,-0.071666667,0.045833333,1,0,0,target,388275,1,2024-10-10_12h17.20.917,visual search,2024.1.5,None,2024-10-10 12h17.27.538467 +0530
176,0,176,0,312.6697608,,312.6382659,5,312.6697608,312.6697608,0.0189822,313.6807324,,314.5495549,-0.0825,0.42,1,0,0,,388275,1,2024-10-10_12h17.20.917,visual search,2024.1.5,None,2024-10-10 12h17.27.538467 +0530
177,0,177,0,314.5869809,,314.5534337,5,314.5869809,314.5869809,0.019876,315.5974788,,315.9496001,-0.179166667,0.121666667,1,0,0,target,388275,1,2024-10-10_12h17.20.917,visual search,2024.1.5,None,2024-10-10 12h17.27.538467 +0530
178,0,178,0,316.0059243,,315.9537904,10,316.0059243,316.0059243,0.0323008,317.0126162,,317.6320375,0.230833333,0.275833333,1,0,0,target,388275,1,2024-10-10_12h17.20.917,visual search,2024.1.5,None,2024-10-10 12h17.27.538467 +0530
179,0,179,0,317.6914626,,317.6355324,10,317.6914626,317.6914626,0.0347547,318.7027068,,318.9694819,0.264166667,0.275833333,1,0,0,target,388275,1,2024-10-10_12h17.20.917,visual search,2024.1.5,None,2024-10-10 12h17.27.538467 +0530
180,0,180,0,319.0005855,,318.9723302,5,319.0005855,319.0005855,0.0161859,320.0142542,,320.5336268,-0.488333333,-0.175833333,1,0,0,target,388275,1,2024-10-10_12h17.20.917,visual search,2024.1.5,None,2024-10-10 12h17.27.538467 +0530
181,0,181,0,320.5890526,,320.5377022,10,320.5890526,320.5890526,0.0361099,321.6127302,,321.781732,-0.451666667,-0.163333333,1,0,0,target,388275,1,2024-10-10_12h17.20.917,visual search,2024.1.5,None,2024-10-10 12h17.27.538467 +0530
182,0,182,0,321.8126499,,321.7846767,5,321.8126499,321.8126499,0.0161343,322.8143728,,323.184117,-0.084166667,0.204166667,1,0,0,target,388275,1,2024-10-10_12h17.20.917,visual search,2024.1.5,None,2024-10-10 12h17.27.538467 +0530
183,0,183,0,323.245372,,323.1884007,10,323.245372,323.245372,0.0337064,324.2467056,,324.9941731,0.394166667,-0.426666667,1,0,0,target,388275,1,2024-10-10_12h17.20.917,visual search,2024.1.5,None,2024-10-10 12h17.27.538467 +0530
184,0,184,0,325.0276227,,325.0003659,5,325.0276227,325.0276227,0.0158616,326.0309327,,326.4506782,-0.175,-0.054166667,1,0,0,target,388275,1,2024-10-10_12h17.20.917,visual search,2024.1.5,None,2024-10-10 12h17.27.538467 +0530
185,0,185,0,326.5128226,,326.4548074,10,326.5128226,326.5128226,0.0350342,327.5144429,,327.8152382,0.015833333,-0.208333333,1,0,0,target,388275,1,2024-10-10_12h17.20.917,visual search,2024.1.5,None,2024-10-10 12h17.27.538467 +0530
186,0,186,0,327.8456249,,327.8182548,5,327.8456249,327.8456249,0.0161941,328.8478757,,330.0169517,0.214166667,0.493333333,1,0,0,target,388275,1,2024-10-10_12h17.20.917,visual search,2024.1.5,None,2024-10-10 12h17.27.538467 +0530
187,0,187,0,330.069404,,330.0209335,10,330.069404,330.069404,0.0324827,331.0812376,,331.8385585,0.401666667,-0.348333333,1,0,0,target,388275,1,2024-10-10_12h17.20.917,visual search,2024.1.5,None,2024-10-10 12h17.27.538467 +0530
188,0,188,0,331.8993499,,331.8418174,10,331.8993499,331.8993499,0.0317853,332.9302792,,333.2574876,0.0875,0.435833333,1,0,0,,388275,1,2024-10-10_12h17.20.917,visual search,2024.1.5,None,2024-10-10 12h17.27.538467 +0530
189,0,189,0,333.2897745,,333.2600804,5,333.2897745,333.2897745,0.0202583,334.2984546,,334.5506534,0.029166667,-0.0775,1,0,0,,388275,1,2024-10-10_12h17.20.917,visual search,2024.1.5,None,2024-10-10 12h17.27.538467 +0530
190,0,190,0,334.6052059,,334.554404,10,334.6052059,334.6052059,0.0330325,335.6061826,,335.8492486,-0.330833333,-0.1425,1,0,0,target,388275,1,2024-10-10_12h17.20.917,visual search,2024.1.5,None,2024-10-10 12h17.27.538467 +0530
191,0,191,0,335.876287,,335.8522646,5,335.876287,335.876287,0.0165175,336.8812003,,337.0678589,-0.3325,-0.265833333,1,0,0,target,388275,1,2024-10-10_12h17.20.917,visual search,2024.1.5,None,2024-10-10 12h17.27.538467 +0530
192,0,192,0,337.1245482,,337.0728866,10,337.1245482,337.1245482,0.0345719,338.1298325,,338.3821156,-0.065833333,-0.240833333,1,0,0,target,388275,1,2024-10-10_12h17.20.917,visual search,2024.1.5,None,2024-10-10 12h17.27.538467 +0530
193,0,193,0,338.4189397,,338.3849547,5,338.4189397,338.4189397,0.0225131,339.4313121,,339.4996218,0.065833333,-0.260833333,1,0,0,target,388275,1,2024-10-10_12h17.20.917,visual search,2024.1.5,None,2024-10-10 12h17.27.538467 +0530
194,0,194,0,339.5308703,,339.5027251,5,339.5308703,339.5308703,0.0162808,340.5320087,,341.7001354,0.488333333,0.498333333,1,0,0,target,388275,1,2024-10-10_12h17.20.917,visual search,2024.1.5,None,2024-10-10 12h17.27.538467 +0530
195,0,195,0,341.7307785,,341.7040839,5,341.7307785,341.7307785,0.0182343,342.7315871,,343.1334187,-0.309166667,0.175833333,1,0,0,target,388275,1,2024-10-10_12h17.20.917,visual search,2024.1.5,None,2024-10-10 12h17.27.538467 +0530
196,0,196,0,343.1664522,,343.1388981,5,343.1664522,343.1664522,0.0183258,344.1648575,,344.3162937,-0.373333333,0.258333333,1,0,0,target,388275,1,2024-10-10_12h17.20.917,visual search,2024.1.5,None,2024-10-10 12h17.27.538467 +0530
197,0,197,0,344.3791632,,344.3209105,10,344.3791632,344.3791632,0.0393732,345.4004899,,345.9154981,0.133333333,-0.205833333,1,0,0,target,388275,1,2024-10-10_12h17.20.917,visual search,2024.1.5,None,2024-10-10 12h17.27.538467 +0530
198,0,198,0,345.9690854,,345.918393,10,345.9690854,345.9690854,0.0302526,346.976309,,347.2304123,-0.376666667,0.0625,1,0,0,target,388275,1,2024-10-10_12h17.20.917,visual search,2024.1.5,None,2024-10-10 12h17.27.538467 +0530
199,0,199,0,347.2926397,,347.2336507,10,347.2926397,347.2926397,0.0319638,348.3017803,,351.0518915,-0.3725,0.004166667,1,0,0,target,388275,1,2024-10-10_12h17.20.917,visual search,2024.1.5,None,2024-10-10 12h17.27.538467 +0530
