trials.thisRepN,trials.thisTrialN,trials.thisN,trials.thisIndex,thisRow.t,notes,trial.started,num_distr,fixation.started,target.started,mouse.started,fixation.stopped,trial.stopped,mouse.x,mouse.y,mouse.leftButton,mouse.midButton,mouse.rightButton,mouse.time,mouse.clicked_name,participant,session,date,expName,psychopyVersion,frameRate,expStart,
0,0,0,0,0.055327399997622706,,0.010954099998343736,5,0.055327399997622706,0.055327399997622706,0.043365100005757995,1.0686218999908306,2.6350010999885853,[-0.23],[0.21166666666666667],[1],[0],[0],[2.5904299999965588],['target'],564319,001,2024-10-10_16h19.38.940,visual search,2024.1.5,None,2024-10-10 16h20.28.384310 +0530,
1,0,1,0,2.668203299996094,,2.6396974999952363,5,2.668203299996094,2.668203299996094,0.018875800000387244,3.6858370999980252,4.6180366999906255,[0.3983333333333333],[-0.20833333333333334],[1],[0],[0],[1.9596293999929912],['target'],564319,001,2024-10-10_16h19.38.940,visual search,2024.1.5,None,2024-10-10 16h20.28.384310 +0530,
2,0,2,0,4.6754757999879075,,4.622687099996256,10,4.6754757999879075,4.6754757999879075,0.036337099998490885,5.692382900000666,6.935100299990154,[0.19833333333333333],[-0.35583333333333333],[1],[0],[0],[2.2765417000046],['target'],564319,001,2024-10-10_16h19.38.940,visual search,2024.1.5,None,2024-10-10 16h20.28.384310 +0530,
3,0,3,0,6.969058699993184,,6.938088899987633,5,6.969058699993184,6.969058699993184,0.021247299999231473,7.966986899991753,8.553273400000762,[-0.1825],[-0.17666666666666667],[1],[0],[0],[1.5940397000085795],['target'],564319,001,2024-10-10_16h19.38.940,visual search,2024.1.5,None,2024-10-10 16h20.28.384310 +0530,
4,0,4,0,8.609810299996752,,8.556844199993066,10,8.609810299996752,8.609810299996752,0.03630239999620244,9.632283099999768,10.90880949998973,[0.03166666666666667],[0.3441666666666667],[1],[0],[0],[2.3155293999880087],['target'],564319,001,2024-10-10_16h19.38.940,visual search,2024.1.5,None,2024-10-10 16h20.28.384310 +0530,
5,0,5,0,10.975275199991302,,10.913386799991713,10,10.975275199991302,10.975275199991302,0.03736039999057539,11.993660199994338,12.50426429999061,[0.2733333333333333],[0.2683333333333333],[1],[0],[0],[1.553997499999241],['target'],564319,001,2024-10-10_16h19.38.940,visual search,2024.1.5,None,2024-10-10 16h20.28.384310 +0530,
6,0,6,0,12.57606819999637,,12.50783409998985,10,12.57606819999637,12.57606819999637,0.037375100000645034,13.613681499991799,13.934879899999942,[0.11833333333333333],[0.3725],[1],[0],[0],[1.3895311000087531],['target'],564319,001,2024-10-10_16h19.38.940,visual search,2024.1.5,None,2024-10-10 16h20.28.384310 +0530,
7,0,7,0,14.004972700000508,,13.937974599990412,10,14.004972700000508,14.004972700000508,0.03422249999130145,15.087571600000956,15.568369699991308,[-0.195],[0.14083333333333334],[1],[0],[0],[1.5963011999992887],['target'],564319,001,2024-10-10_16h19.38.940,visual search,2024.1.5,None,2024-10-10 16h20.28.384310 +0530,
8,0,8,0,15.646721899989643,,15.571592499996768,10,15.646721899989643,15.646721899989643,0.0354728999955114,16.705837699992117,17.472098699989147,[0.07416666666666667],[-0.09333333333333334],[1],[0],[0],[1.8651736000028905],['target'],564319,001,2024-10-10_16h19.38.940,visual search,2024.1.5,None,2024-10-10 16h20.28.384310 +0530,
9,0,9,0,17.504319499988924,,17.475782499997877,5,17.504319499988924,17.504319499988924,0.019891699994332157,18.517411599998013,18.939355700000306,[0.1225],[-0.2791666666666667],[1],[0],[0],[1.4438852999883238],['target'],564319,001,2024-10-10_16h19.38.940,visual search,2024.1.5,None,2024-10-10 16h20.28.384310 +0530,
10,0,10,0,18.979867499991087,,18.945074799994472,5,18.979867499991087,18.979867499991087,0.019829599987133406,19.984627699988778,20.36818529998709,[0.12083333333333333],[-0.014166666666666666],[1],[0],[0],[1.4041314999922179],['target'],564319,001,2024-10-10_16h19.38.940,visual search,2024.1.5,None,2024-10-10 16h20.28.384310 +0530,
11,0,11,0,20.40090949999285,,20.372005899989745,5,20.40090949999285,20.40090949999285,0.019857899998896755,21.400753499998245,22.185976399996434,[0.03333333333333333],[-0.23083333333333333],[1],[0],[0],[1.794168599997647],['target'],564319,001,2024-10-10_16h19.38.940,visual search,2024.1.5,None,2024-10-10 16h20.28.384310 +0530,
12,0,12,0,22.265746299992315,,22.19057549998979,10,22.265746299992315,22.265746299992315,0.04873019999649841,23.275100399987423,25.905765599993174,[-0.18083333333333335],[-0.09916666666666667],[1],[0],[0],[3.666963499999838],['target'],564319,001,2024-10-10_16h19.38.940,visual search,2024.1.5,None,2024-10-10 16h20.28.384310 +0530,
13,0,13,0,25.93950069999846,,25.90908599999966,5,25.93950069999846,25.93950069999846,0.02058180001040455,26.951198999988264,28.4021778999886,[0.49333333333333335],[0.4075],[1],[0],[0],[2.4725242999993498],['target'],564319,001,2024-10-10_16h19.38.940,visual search,2024.1.5,None,2024-10-10 16h20.28.384310 +0530,
14,0,14,0,28.459898099987186,,28.407983500001137,10,28.459898099987186,28.459898099987186,0.03525010000157636,29.4710797000007,31.111488599999575,[0.024166666666666666],[-0.41083333333333333],[1],[0],[0],[2.6684133000089787],['target'],564319,001,2024-10-10_16h19.38.940,visual search,2024.1.5,None,2024-10-10 16h20.28.384310 +0530,
15,0,15,0,31.143384399998467,,31.11734159999469,5,31.143384399998467,31.143384399998467,0.01785340000060387,32.15089179998904,34.16903189998993,[-0.27416666666666667],[0.4666666666666667],[1],[0],[0],[3.0343637999903876],['target'],564319,001,2024-10-10_16h19.38.940,visual search,2024.1.5,None,2024-10-10 16h20.28.384310 +0530,
16,0,16,0,34.224311799989664,,34.17287129999022,10,34.224311799989664,34.224311799989664,0.034923700004583225,35.23967789999733,36.6512253999972,[-0.4325],[-0.4741666666666667],[1],[0],[0],[2.4437368999933824],['target'],564319,001,2024-10-10_16h19.38.940,visual search,2024.1.5,None,2024-10-10 16h20.28.384310 +0530,
17,0,17,0,36.716889899995294,,36.65448939999624,10,36.716889899995294,36.716889899995294,0.03912590000254568,37.73146179999458,38.08912989999226,[-0.2075],[-0.06833333333333333],[1],[0],[0],[1.3957026999996742],['target'],564319,001,2024-10-10_16h19.38.940,visual search,2024.1.5,None,2024-10-10 16h20.28.384310 +0530,
18,0,18,0,38.159280499996385,,38.092770599992946,10,38.159280499996385,38.159280499996385,0.03702980000525713,39.203100200000335,40.36422319999838,[-0.018333333333333333],[0.18333333333333332],[1],[0],[0],[2.2346528000052786],['target'],564319,001,2024-10-10_16h19.38.940,visual search,2024.1.5,None,2024-10-10 16h20.28.384310 +0530,
19,0,19,0,40.39581269999326,,40.36775219999254,5,40.39581269999326,40.39581269999326,0.018950600002426654,41.400706799991895,41.86983589999727,[-0.0675],[-0.10583333333333333],[1],[0],[0],[1.4833234999969136],['target'],564319,001,2024-10-10_16h19.38.940,visual search,2024.1.5,None,2024-10-10 16h20.28.384310 +0530,
20,0,20,0,41.93107459999737,,41.873605399989174,10,41.93107459999737,41.93107459999737,0.03613680000125896,42.956003699990106,43.998391199987964,[0.4083333333333333],[-0.3016666666666667],[1],[0],[0],[2.0885372000047937],['target'],564319,001,2024-10-10_16h19.38.940,visual search,2024.1.5,None,2024-10-10 16h20.28.384310 +0530,
21,0,21,0,44.02825019999,,44.0019190999883,5,44.02825019999,44.02825019999,0.01756079999904614,45.03482329999679,45.48594349999621,[-0.013333333333333334],[-0.11833333333333333],[1],[0],[0],[1.4667249000049196],['target'],564319,001,2024-10-10_16h19.38.940,visual search,2024.1.5,None,2024-10-10 16h20.28.384310 +0530,
22,0,22,0,45.519552499987185,,45.48995669999567,5,45.519552499987185,45.519552499987185,0.020163899986073375,46.534784599993145,47.15329550000024,[0.265],[-0.05333333333333334],[1],[0],[0],[1.6434623999957694],['target'],564319,001,2024-10-10_16h19.38.940,visual search,2024.1.5,None,2024-10-10 16h20.28.384310 +0530,
23,0,23,0,47.185485800000606,,47.15665999999328,5,47.185485800000606,47.185485800000606,0.019488699996145442,48.18511719998787,49.01957359998778,[0.16083333333333333],[-0.3675],[1],[0],[0],[1.8435312999936286],['target'],564319,001,2024-10-10_16h19.38.940,visual search,2024.1.5,None,2024-10-10 16h20.28.384310 +0530,
24,0,24,0,49.05514929999481,,49.023826299991924,5,49.05514929999481,49.05514929999481,0.022124800001620315,50.06795549999515,50.81932309998956,[0.27],[-0.2783333333333333],[1],[0],[0],[1.7737654000084149],['target'],564319,001,2024-10-10_16h19.38.940,visual search,2024.1.5,None,2024-10-10 16h20.28.384310 +0530,
25,0,25,0,50.8532722999953,,50.82333199999994,5,50.8532722999953,50.8532722999953,0.01994320000812877,51.86772429999837,52.76897939998889,[-0.0025],[-0.46416666666666667],[1],[0],[0],[1.926014500000747],['target'],564319,001,2024-10-10_16h19.38.940,visual search,2024.1.5,None,2024-10-10 16h20.28.384310 +0530,
26,0,26,0,52.831719599998905,,52.772955299995374,10,52.831719599998905,52.831719599998905,0.042618199993739836,53.856741099996725,54.418108499987284,[0.0425],[-0.06583333333333333],[1],[0],[0],[1.602884300009464],['target'],564319,001,2024-10-10_16h19.38.940,visual search,2024.1.5,None,2024-10-10 16h20.28.384310 +0530,
27,0,27,0,54.45125420000113,,54.42137899999216,5,54.45125420000113,54.45125420000113,0.020041399999172427,55.45224809998763,56.15281429998868,[-0.21583333333333332],[0.08166666666666667],[1],[0],[0],[1.7115753999969456],['target'],564319,001,2024-10-10_16h19.38.940,visual search,2024.1.5,None,2024-10-10 16h20.28.384310 +0530,
28,0,28,0,56.208717199988314,,56.156686999995145,10,56.208717199988314,56.208717199988314,0.03579699998954311,57.229287699999986,57.90432599998894,[0.31083333333333335],[-0.15583333333333332],[1],[0],[0],[1.7118663000001106],['target'],564319,001,2024-10-10_16h19.38.940,visual search,2024.1.5,None,2024-10-10 16h20.28.384310 +0530,
29,0,29,0,57.969331599990255,,57.911603599990485,10,57.969331599990255,57.969331599990255,0.03514589999394957,58.984874399990076,59.814583299987135,[0.25333333333333335],[0.24916666666666668],[1],[0],[0],[1.8680346000037389],['target'],564319,001,2024-10-10_16h19.38.940,visual search,2024.1.5,None,2024-10-10 16h20.28.384310 +0530,
30,0,30,0,59.88162299999385,,59.81795549999515,10,59.88162299999385,59.88162299999385,0.034708000006503426,60.91264059999958,62.25771900000109,[-0.025833333333333333],[0.025833333333333333],[1],[0],[0],[2.4052776000025915],['target'],564319,001,2024-10-10_16h19.38.940,visual search,2024.1.5,None,2024-10-10 16h20.28.384310 +0530,
31,0,31,0,62.33068020000064,,62.261097299997346,10,62.33068020000064,62.33068020000064,0.035543899997719564,63.347436399999424,64.69836019999639,[-0.045],[-0.30833333333333335],[1],[0],[0],[2.401993700012099],['target'],564319,001,2024-10-10_16h19.38.940,visual search,2024.1.5,None,2024-10-10 16h20.28.384310 +0530,
32,0,32,0,64.73402609999175,,64.70192969999334,5,64.73402609999175,64.73402609999175,0.020085500000277534,65.73489639999752,66.4047520999884,[-0.2425],[-0.2],[1],[0],[0],[1.682923500004108],['target'],564319,001,2024-10-10_16h19.38.940,visual search,2024.1.5,None,2024-10-10 16h20.28.384310 +0530,
33,0,33,0,66.4617384000012,,66.40835249998781,10,66.4617384000012,66.4617384000012,0.03612319999956526,67.46809819999908,68.30778079999436,[-0.10833333333333334],[0.03333333333333333],[1],[0],[0],[1.8633731000008993],['target'],564319,001,2024-10-10_16h19.38.940,visual search,2024.1.5,None,2024-10-10 16h20.28.384310 +0530,
34,0,34,0,68.34400810000079,,68.31220289999328,5,68.34400810000079,68.34400810000079,0.0223175999999512,69.35220339999069,69.96990479998931,[0.08916666666666667],[0.115],[1],[0],[0],[1.6359076999942772],['target'],564319,001,2024-10-10_16h19.38.940,visual search,2024.1.5,None,2024-10-10 16h20.28.384310 +0530,
35,0,35,0,70.02512009999191,,69.97336649999488,10,70.02512009999191,70.02512009999191,0.035306799996760674,71.03543429999263,71.23664809999173,[-0.010833333333333334],[0.22],[1],[0],[0],[1.2277766000042902],['target'],564319,001,2024-10-10_16h19.38.940,visual search,2024.1.5,None,2024-10-10 16h20.28.384310 +0530,
36,0,36,0,71.26945719998912,,71.2401608999935,5,71.26945719998912,71.26945719998912,0.019262899993918836,72.28564649999316,73.05311749999237,[-0.2783333333333333],[0.45916666666666667],[1],[0],[0],[1.7938316999934614],['target'],564319,001,2024-10-10_16h19.38.940,visual search,2024.1.5,None,2024-10-10 16h20.28.384310 +0530,
37,0,37,0,73.11365919999662,,73.0587181999872,10,73.11365919999662,73.11365919999662,0.03997880000679288,74.13360479999392,74.70907969999826,[0.31416666666666665],[-0.0525],[1],[0],[0],[1.6110666999884415],['target'],564319,001,2024-10-10_16h19.38.940,visual search,2024.1.5,None,2024-10-10 16h20.28.384310 +0530,
38,0,38,0,74.74076549999882,,74.71306859998731,5,74.74076549999882,74.74076549999882,0.01975479999964591,75.75138679999509,76.00407679998898,[0.4216666666666667],[0.17416666666666666],[1],[0],[0],[1.271979100012686],['target'],564319,001,2024-10-10_16h19.38.940,visual search,2024.1.5,None,2024-10-10 16h20.28.384310 +0530,
39,0,39,0,76.03814869999769,,76.0078829999984,5,76.03814869999769,76.03814869999769,0.018895100001827814,77.03520819998812,77.41937699999835,[-0.46166666666666667],[-0.14333333333333334],[1],[0],[0],[1.3926366999949096],['target'],564319,001,2024-10-10_16h19.38.940,visual search,2024.1.5,None,2024-10-10 16h20.28.384310 +0530,
40,0,40,0,77.47597189999942,,77.42349259999173,10,77.47597189999942,77.47597189999942,0.03611509999609552,78.48528280000028,80.16496949999419,[-0.23416666666666666],[0.39666666666666667],[1],[0],[0],[2.70573929999955],['target'],564319,001,2024-10-10_16h19.38.940,visual search,2024.1.5,None,2024-10-10 16h20.28.384310 +0530,
41,0,41,0,80.19689029999427,,80.16835559999163,5,80.19689029999427,80.19689029999427,0.01921139999467414,81.20192339998903,82.27018969999335,[0.36666666666666664],[0.26416666666666666],[1],[0],[0],[2.082773600006476],['target'],564319,001,2024-10-10_16h19.38.940,visual search,2024.1.5,None,2024-10-10 16h20.28.384310 +0530,
42,0,42,0,82.33195159999013,,82.27464459999464,10,82.33195159999013,82.33195159999013,0.041664899996249005,83.35509159999492,83.9129954999953,[-0.49],[0.2775],[1],[0],[0],[1.5970645000052173],['target'],564319,001,2024-10-10_16h19.38.940,visual search,2024.1.5,None,2024-10-10 16h20.28.384310 +0530,
43,0,43,0,83.97365759999957,,83.91827339999145,10,83.97365759999957,83.97365759999957,0.03289550000044983,85.0172492999991,85.88042879999557,[0.05333333333333334],[0.35],[1],[0],[0],[1.9295418999972753],['target'],564319,001,2024-10-10_16h19.38.940,visual search,2024.1.5,None,2024-10-10 16h20.28.384310 +0530,
44,0,44,0,85.94545549999748,,85.88560769999458,10,85.94545549999748,85.94545549999748,0.03253019999829121,86.99253279999539,87.26289629998791,[0.2625],[0.38083333333333336],[1],[0],[0],[1.3448967000003904],['target'],564319,001,2024-10-10_16h19.38.940,visual search,2024.1.5,None,2024-10-10 16h20.28.384310 +0530,
45,0,45,0,87.29477299998689,,87.26861959999951,5,87.29477299998689,87.29477299998689,0.0174338000069838,88.30224489999819,89.43752649999806,[0.11333333333333333],[-0.30083333333333334],[1],[0],[0],[2.151728600001661],['target'],564319,001,2024-10-10_16h19.38.940,visual search,2024.1.5,None,2024-10-10 16h20.28.384310 +0530,
46,0,46,0,89.47131909999007,,89.44117759999062,5,89.47131909999007,89.47131909999007,0.020465499997953884,90.48570359998848,90.97104319999926,[-0.43333333333333335],[-0.20583333333333334],[1],[0],[0],[1.5096462999936193],['target'],564319,001,2024-10-10_16h19.38.940,visual search,2024.1.5,None,2024-10-10 16h20.28.384310 +0530,
47,0,47,0,91.02643879999232,,90.97466359999089,10,91.02643879999232,91.02643879999232,0.035166799993021414,92.04911429999629,92.4038392999937,[-0.2425],[-0.07666666666666666],[1],[0],[0],[1.3940270000020973],['target'],564319,001,2024-10-10_16h19.38.940,visual search,2024.1.5,None,2024-10-10 16h20.28.384310 +0530,
48,0,48,0,92.4371805999981,,92.40677139999752,5,92.4371805999981,92.4371805999981,0.018529199995100498,93.43654189999506,94.05348809999123,[0.30416666666666664],[0.2],[1],[0],[0],[1.6282693999964977],['target'],564319,001,2024-10-10_16h19.38.940,visual search,2024.1.5,None,2024-10-10 16h20.28.384310 +0530,
49,0,49,0,94.11032949999208,,94.058280799989,10,94.11032949999208,94.11032949999208,0.03556209999078419,95.12096299999394,95.85870469998918,[-0.2075],[-0.2025],[1],[0],[0],[1.765416499998537],['target'],564319,001,2024-10-10_16h19.38.940,visual search,2024.1.5,None,2024-10-10 16h20.28.384310 +0530,
50,0,50,0,95.92429640000046,,95.86418859999685,10,95.92429640000046,95.92429640000046,0.03635369999392424,96.99399429999175,97.30832479998935,[0.34833333333333333],[0.23],[1],[0],[0],[1.408403499997803],['target'],564319,001,2024-10-10_16h19.38.940,visual search,2024.1.5,None,2024-10-10 16h20.28.384310 +0530,
51,0,51,0,97.34254129999317,,97.31127329998708,5,97.34254129999317,97.34254129999317,0.020146299997577444,98.3518994999904,99.03763489999983,[0.17083333333333334],[-0.4216666666666667],[1],[0],[0],[1.7063112999894656],['target'],564319,001,2024-10-10_16h19.38.940,visual search,2024.1.5,None,2024-10-10 16h20.28.384310 +0530,
52,0,52,0,99.07156559999567,,99.04166049999185,5,99.07156559999567,99.07156559999567,0.020491000002948567,100.08623369999987,100.87016719998792,[0.4083333333333333],[0.38666666666666666],[1],[0],[0],[1.8082632000005106],['target'],564319,001,2024-10-10_16h19.38.940,visual search,2024.1.5,None,2024-10-10 16h20.28.384310 +0530,
53,0,53,0,100.92667219998839,,100.87422729999525,10,100.92667219998839,100.92667219998839,0.03547180000168737,101.94782619999023,103.09449449999374,[-0.1825],[-0.10333333333333333],[1],[0],[0],[2.1850948999926914],['target'],564319,001,2024-10-10_16h19.38.940,visual search,2024.1.5,None,2024-10-10 16h20.28.384310 +0530,
54,0,54,0,103.15271249999932,,103.09921519999625,10,103.15271249999932,103.15271249999932,0.03206070000305772,104.16329079998832,105.23778179999499,[-0.08333333333333333],[-0.25416666666666665],[1],[0],[0],[2.1069191000133287],['target'],564319,001,2024-10-10_16h19.38.940,visual search,2024.1.5,None,2024-10-10 16h20.28.384310 +0530,
55,0,55,0,105.26873830000113,,105.2407639999874,5,105.26873830000113,105.26873830000113,0.01894249999895692,106.2695076999953,106.7882738999906,[-0.4725],[0.08666666666666667],[1],[0],[0],[1.5286344999913126],['target'],564319,001,2024-10-10_16h19.38.940,visual search,2024.1.5,None,2024-10-10 16h20.28.384310 +0530,
56,0,56,0,106.82304239999212,,106.7923768999899,5,106.82304239999212,106.82304239999212,0.02104180000605993,107.83635289999074,108.55589289999625,[0.3958333333333333],[-0.3308333333333333],[1],[0],[0],[1.7426057999982731],['target'],564319,001,2024-10-10_16h19.38.940,visual search,2024.1.5,None,2024-10-10 16h20.28.384310 +0530,
57,0,57,0,108.59087859999272,,108.55980659999477,5,108.59087859999272,108.59087859999272,0.021077299999888055,109.60282409998763,110.12164279998979,[-0.058333333333333334],[0.2375],[1],[0],[0],[1.5411118000047281],['target'],564319,001,2024-10-10_16h19.38.940,visual search,2024.1.5,None,2024-10-10 16h20.28.384310 +0530,
58,0,58,0,110.15939979998802,,110.1250788999896,5,110.15939979998802,110.15939979998802,0.02286650000314694,111.16822300000058,111.80391869999585,[0.06833333333333333],[-0.315],[1],[0],[0],[1.6561516000074334],[],564319,001,2024-10-10_16h19.38.940,visual search,2024.1.5,None,2024-10-10 16h20.28.384310 +0530,
59,0,59,0,111.86066199999186,,111.8081128999911,10,111.86066199999186,111.86066199999186,0.035889799997676164,112.87393879999581,113.2552052999963,[0.4241666666666667],[-0.43416666666666665],[1],[0],[0],[1.4116295000130776],['target'],564319,001,2024-10-10_16h19.38.940,visual search,2024.1.5,None,2024-10-10 16h20.28.384310 +0530,
60,0,60,0,113.31363499999861,,113.25833609999972,10,113.31363499999861,113.31363499999861,0.03467340000497643,114.33310019999044,115.63309099999606,[-0.02],[-0.4891666666666667],[1],[0],[0],[2.340210099995602],['target'],564319,001,2024-10-10_16h19.38.940,visual search,2024.1.5,None,2024-10-10 16h20.28.384310 +0530,
61,0,61,0,115.66679589998967,,115.63753069999802,5,115.66679589998967,115.66679589998967,0.020226099994033575,116.66965039999923,117.37088719999883,[-0.3233333333333333],[0.31],[1],[0],[0],[1.7133960999926785],['target'],564319,001,2024-10-10_16h19.38.940,visual search,2024.1.5,None,2024-10-10 16h20.28.384310 +0530,
62,0,62,0,117.40496390000044,,117.37491269999009,5,117.40496390000044,117.40496390000044,0.020590600004652515,118.41996639998979,118.7368923999893,[0.06583333333333333],[0.1475],[1],[0],[0],[1.3416769000032218],['target'],564319,001,2024-10-10_16h19.38.940,visual search,2024.1.5,None,2024-10-10 16h20.28.384310 +0530,
63,0,63,0,118.79290749999927,,118.74075739999535,10,118.79290749999927,118.79290749999927,0.03522700000030454,119.81275779999851,120.31575939999311,[-0.05583333333333333],[-0.38666666666666666],[1],[0],[0],[1.5400454999908106],['target'],564319,001,2024-10-10_16h19.38.940,visual search,2024.1.5,None,2024-10-10 16h20.28.384310 +0530,
64,0,64,0,120.34907719999319,,120.32058609998785,5,120.34907719999319,120.34907719999319,0.019618499994976446,121.35348109999904,121.85443999999552,[-0.39916666666666667],[0.38416666666666666],[1],[0],[0],[1.5144139999902109],['target'],564319,001,2024-10-10_16h19.38.940,visual search,2024.1.5,None,2024-10-10 16h20.28.384310 +0530,
65,0,65,0,121.91244559999905,,121.85856319998857,10,121.91244559999905,121.91244559999905,0.035308200007420965,122.93652160000056,124.49381780000112,[-0.08166666666666667],[-0.33],[1],[0],[0],[2.600214500009315],['target'],564319,001,2024-10-10_16h19.38.940,visual search,2024.1.5,None,2024-10-10 16h20.28.384310 +0530,
66,0,66,0,124.52333099998941,,124.49736989999656,5,124.52333099998941,124.52333099998941,0.017443599994294345,125.53691929999331,126.32048709999071,[0.305],[-0.21833333333333332],[1],[0],[0],[1.806213400006527],['target'],564319,001,2024-10-10_16h19.38.940,visual search,2024.1.5,None,2024-10-10 16h20.28.384310 +0530,
67,0,67,0,126.3558434000006,,126.32465699999011,5,126.3558434000006,126.3558434000006,0.023091300012310967,127.37006359999941,128.88722789999156,[-0.4083333333333333],[0.4741666666666667],[1],[0],[0],[2.5402979999926174],['target'],564319,001,2024-10-10_16h19.38.940,visual search,2024.1.5,None,2024-10-10 16h20.28.384310 +0530,
68,0,68,0,128.92293669999344,,128.89133759999822,5,128.92293669999344,128.92293669999344,0.02163509999809321,129.93603629998688,130.15595069999108,[-0.16666666666666666],[0.05333333333333334],[1],[0],[0],[1.2431981999980053],['target'],564319,001,2024-10-10_16h19.38.940,visual search,2024.1.5,None,2024-10-10 16h20.28.384310 +0530,
69,0,69,0,130.21155459999864,,130.16059299999324,10,130.21155459999864,130.21155459999864,0.03427999999257736,131.22575729999517,131.90967819999787,[-0.495],[-0.4725],[1],[0],[0],[1.7155153999920003],['target'],564319,001,2024-10-10_16h19.38.940,visual search,2024.1.5,None,2024-10-10 16h20.28.384310 +0530,
70,0,70,0,131.94288159999996,,131.91301429999294,5,131.94288159999996,131.94288159999996,0.021142199999303557,132.9532576999918,133.60424539999804,[-0.4],[-0.38916666666666666],[1],[0],[0],[1.6702535999938846],['target'],564319,001,2024-10-10_16h19.38.940,visual search,2024.1.5,None,2024-10-10 16h20.28.384310 +0530,
71,0,71,0,133.6650124000007,,133.60908529999142,10,133.6650124000007,133.6650124000007,0.03838480000558775,134.69592639998882,135.36372399999527,[-0.17083333333333334],[-0.03166666666666667],[1],[0],[0],[1.7166976000007708],['target'],564319,001,2024-10-10_16h19.38.940,visual search,2024.1.5,None,2024-10-10 16h20.28.384310 +0530,
72,0,72,0,135.39678009999625,,135.36942939998698,5,135.39678009999625,135.39678009999625,0.018687100004171953,136.40379919999395,136.67145729999174,[0.30083333333333334],[0.20083333333333334],[1],[0],[0],[1.2838895000022603],['target'],564319,001,2024-10-10_16h19.38.940,visual search,2024.1.5,None,2024-10-10 16h20.28.384310 +0530,
73,0,73,0,136.7048863999953,,136.67580669999006,5,136.7048863999953,136.7048863999953,0.019491800005198456,137.72018519999983,139.80539839999983,[-0.175],[-0.32166666666666666],[1],[0],[0],[3.110269500000868],['target'],564319,001,2024-10-10_16h19.38.940,visual search,2024.1.5,None,2024-10-10 16h20.28.384310 +0530,
74,0,74,0,139.840684099996,,139.81003929999133,5,139.840684099996,139.840684099996,0.01959789999818895,140.8540304999915,141.40444349999598,[-0.4141666666666667],[-0.38666666666666666],[1],[0],[0],[1.5751069000107236],['target'],564319,001,2024-10-10_16h19.38.940,visual search,2024.1.5,None,2024-10-10 16h20.28.384310 +0530,
75,0,75,0,141.43768829999317,,141.40836069999204,5,141.43768829999317,141.43768829999317,0.019964399994933046,142.4540835999942,142.68778680000105,[-0.25333333333333335],[-0.2575],[1],[0],[0],[1.2598449000070104],['target'],564319,001,2024-10-10_16h19.38.940,visual search,2024.1.5,None,2024-10-10 16h20.28.384310 +0530,
76,0,76,0,142.7427239999961,,142.69138720000046,10,142.7427239999961,142.7427239999961,0.034307499998249114,143.76980119998916,144.20354039999074,[0.07583333333333334],[-0.4091666666666667],[1],[0],[0],[1.478099600004498],['target'],564319,001,2024-10-10_16h19.38.940,visual search,2024.1.5,None,2024-10-10 16h20.28.384310 +0530,
77,0,77,0,144.23572419999982,,144.20694899999944,5,144.23572419999982,144.23572419999982,0.019249099990702234,145.23644429999695,146.32251769999857,[-0.44583333333333336],[0.25333333333333335],[1],[0],[0],[2.0965247999993153],['target'],564319,001,2024-10-10_16h19.38.940,visual search,2024.1.5,None,2024-10-10 16h20.28.384310 +0530,
78,0,78,0,146.37880069999665,,146.32644649999565,10,146.37880069999665,146.37880069999665,0.0361272000009194,147.38561339999433,148.16468799998984,[0.2275],[-0.37916666666666665],[1],[0],[0],[1.8023616999998922],['target'],564319,001,2024-10-10_16h19.38.940,visual search,2024.1.5,None,2024-10-10 16h20.28.384310 +0530,
79,0,79,0,148.22520659999282,,148.16982739999366,10,148.22520659999282,148.22520659999282,0.03307029999268707,149.25154050000128,149.21849869999278,[0.18833333333333332],[-0.39166666666666666],[1],[0],[0],[1.0158732999989297],['target'],564319,001,2024-10-10_16h19.38.940,visual search,2024.1.5,None,2024-10-10 16h20.28.384310 +0530,
80,0,80,0,149.25154050000128,,149.22172669999418,5,149.25154050000128,149.25154050000128,0.019718399998964742,150.25260709998838,151.0241551999934,[-0.37916666666666665],[-0.3925],[1],[0],[0],[1.7827944999880856],['target'],564319,001,2024-10-10_16h19.38.940,visual search,2024.1.5,None,2024-10-10 16h20.28.384310 +0530,
81,0,81,0,151.05836169999384,,151.0279765999876,5,151.05836169999384,151.05836169999384,0.02104910000343807,152.07015789998695,152.8061183999962,[-0.2683333333333333],[0.4475],[1],[0],[0],[1.7573703000089154],['target'],564319,001,2024-10-10_16h19.38.940,visual search,2024.1.5,None,2024-10-10 16h20.28.384310 +0530,
82,0,82,0,152.8636392999906,,152.81172519999382,10,152.8636392999906,152.8636392999906,0.035368800003197975,153.8849443999934,157.52768659999128,[-0.13083333333333333],[0.11166666666666666],[1],[0],[0],[4.681233999988763],['target'],564319,001,2024-10-10_16h19.38.940,visual search,2024.1.5,None,2024-10-10 16h20.28.384310 +0530,
83,0,83,0,157.58254719999968,,157.53095729999768,10,157.58254719999968,157.58254719999968,0.030587500004912727,158.59142549999524,160.03951329999836,[0.31416666666666665],[0.019166666666666665],[1],[0],[0],[2.478285400007735],['target'],564319,001,2024-10-10_16h19.38.940,visual search,2024.1.5,None,2024-10-10 16h20.28.384310 +0530,
84,0,84,0,160.10233779999544,,160.04262110000127,10,160.10233779999544,160.10233779999544,0.03370149999682326,161.1290469999949,161.19893169999705,[0.2808333333333333],[0.09916666666666667],[1],[0],[0],[1.1226738000113983],['target'],564319,001,2024-10-10_16h19.38.940,visual search,2024.1.5,None,2024-10-10 16h20.28.384310 +0530,
85,0,85,0,161.2878122999973,,161.20356669998728,10,161.2878122999973,161.2878122999973,0.040279099994222634,162.30747549999796,164.0125371999893,[-0.21833333333333332],[0.005833333333333334],[1],[0],[0],[2.768931899991003],['target'],564319,001,2024-10-10_16h19.38.940,visual search,2024.1.5,None,2024-10-10 16h20.28.384310 +0530,
86,0,86,0,164.04477939999197,,164.01762369999778,5,164.04477939999197,164.04477939999197,0.017979900003410876,165.053216100001,165.30784479998692,[-0.24583333333333332],[-0.25916666666666666],[1],[0],[0],[1.2728910000005271],['target'],564319,001,2024-10-10_16h19.38.940,visual search,2024.1.5,None,2024-10-10 16h20.28.384310 +0530,
87,0,87,0,165.36338279998745,,165.31272849999368,10,165.36338279998745,165.36338279998745,0.034372599999187514,166.37734209999326,167.0234505999979,[0.4025],[-0.4225],[1],[0],[0],[1.676331199996639],['target'],564319,001,2024-10-10_16h19.38.940,visual search,2024.1.5,None,2024-10-10 16h20.28.384310 +0530,
88,0,88,0,167.0650575999898,,167.02826449999702,5,167.0650575999898,167.0650575999898,0.025568099998054095,168.07095339999069,168.9060652999906,[0.31166666666666665],[0.3258333333333333],[1],[0],[0],[1.8525610999931814],['target'],564319,001,2024-10-10_16h19.38.940,visual search,2024.1.5,None,2024-10-10 16h20.28.384310 +0530,
89,0,89,0,168.94613689999096,,168.91211409999232,5,168.94613689999096,168.94613689999096,0.024565700005041435,169.95443539999542,170.35484569999971,[0.3408333333333333],[0.075],[1],[0],[0],[1.4189335999981267],['target'],564319,001,2024-10-10_16h19.38.940,visual search,2024.1.5,None,2024-10-10 16h20.28.384310 +0530,
90,0,90,0,170.3911051999894,,170.35896119999234,5,170.3911051999894,170.3911051999894,0.020076100001460873,171.40361689998826,171.72248989999935,[-0.03666666666666667],[0.3475],[1],[0],[0],[1.343899400002556],['target'],564319,001,2024-10-10_16h19.38.940,visual search,2024.1.5,None,2024-10-10 16h20.28.384310 +0530,
91,0,91,0,171.79013470000064,,171.7261557999882,10,171.79013470000064,171.79013470000064,0.040616900005261414,172.79114849999314,174.15598489998956,[-0.495],[-0.3466666666666667],[1],[0],[0],[2.389081699991948],['target'],564319,001,2024-10-10_16h19.38.940,visual search,2024.1.5,None,2024-10-10 16h20.28.384310 +0530,
92,0,92,0,174.22127919999184,,174.16016469999158,10,174.22127919999184,174.22127919999184,0.04017359999124892,175.25920349999797,175.3210732999869,[-0.465],[-0.285],[1],[0],[0],[1.1208706999896094],['target'],564319,001,2024-10-10_16h19.38.940,visual search,2024.1.5,None,2024-10-10 16h20.28.384310 +0530,
93,0,93,0,175.39495809999062,,175.3252300999884,10,175.39495809999062,175.39495809999062,0.040020499989623204,176.4177223000006,176.64666939999734,[-0.29],[0.0016666666666666668],[1],[0],[0],[1.281715199991595],['target'],564319,001,2024-10-10_16h19.38.940,visual search,2024.1.5,None,2024-10-10 16h20.28.384310 +0530,
94,0,94,0,176.72263819999353,,176.6524475999904,10,176.72263819999353,176.72263819999353,0.03214470000239089,177.746659299999,178.34183479999774,[-0.15166666666666667],[0.19],[1],[0],[0],[1.657747199991718],['target'],564319,001,2024-10-10_16h19.38.940,visual search,2024.1.5,None,2024-10-10 16h20.28.384310 +0530,
95,0,95,0,178.41675379998924,,178.34490209999785,10,178.41675379998924,178.41675379998924,0.03142080000543501,179.50590730000113,180.64379159999953,[-0.29083333333333333],[-0.47333333333333333],[1],[0],[0],[2.267444199998863],['target'],564319,001,2024-10-10_16h19.38.940,visual search,2024.1.5,None,2024-10-10 16h20.28.384310 +0530,
96,0,96,0,180.7391549999884,,180.64895279999473,10,180.7391549999884,180.7391549999884,0.04043429999728687,181.8106090999936,182.59402119999868,[-0.24666666666666667],[-0.2816666666666667],[1],[0],[0],[1.9053410000051372],['target'],564319,001,2024-10-10_16h19.38.940,visual search,2024.1.5,None,2024-10-10 16h20.28.384310 +0530,
97,0,97,0,182.63103720000072,,182.59814849999384,5,182.63103720000072,182.63103720000072,0.01983430000836961,183.63882469999953,185.07366719999118,[0.3591666666666667],[0.13333333333333333],[1],[0],[0],[2.4561735000024782],['target'],564319,001,2024-10-10_16h19.38.940,visual search,2024.1.5,None,2024-10-10 16h20.28.384310 +0530,
98,0,98,0,185.1376814999967,,185.07812289999856,10,185.1376814999967,185.1376814999967,0.03437510000367183,186.1424771999882,186.72530939998978,[0.2325],[-0.013333333333333334],[1],[0],[0],[1.6126420000073267],['target'],564319,001,2024-10-10_16h19.38.940,visual search,2024.1.5,None,2024-10-10 16h20.28.384310 +0530,
99,0,99,0,186.80771809999715,,186.72966859998996,10,186.80771809999715,186.80771809999715,0.042073699994944036,187.8232971999969,191.62403019999329,[0.2825],[-0.35333333333333333],[1],[0],[0],[4.8523736000061035],['target'],564319,001,2024-10-10_16h19.38.940,visual search,2024.1.5,None,2024-10-10 16h20.28.384310 +0530,
100,0,100,0,191.7033378999913,,191.6281534999871,10,191.7033378999913,191.7033378999913,0.040851700003258884,192.74497699999483,193.6265596000012,[0.30416666666666664],[0.205],[1],[0],[0],[1.9579647999926237],['target'],564319,001,2024-10-10_16h19.38.940,visual search,2024.1.5,None,2024-10-10 16h20.28.384310 +0530,
101,0,101,0,193.65904119999323,,193.62970379999024,5,193.65904119999323,193.65904119999323,0.0192998999991687,194.67086019999988,195.44224499999837,[-0.4008333333333333],[0.43416666666666665],[1],[0],[0],[1.7931646000070032],['target'],564319,001,2024-10-10_16h19.38.940,visual search,2024.1.5,None,2024-10-10 16h20.28.384310 +0530,
102,0,102,0,195.5033817999938,,195.44618179999816,10,195.5033817999938,195.5033817999938,0.03919399999722373,196.50846259998798,196.92768589999469,[0.010833333333333334],[0.15],[1],[0],[0],[1.4423701999912737],['target'],564319,001,2024-10-10_16h19.38.940,visual search,2024.1.5,None,2024-10-10 16h20.28.384310 +0530,
103,0,103,0,196.99381839999114,,196.93248799999128,10,196.99381839999114,196.99381839999114,0.03578390000620857,198.00925029999053,199.46508119998907,[-0.0575],[0.3983333333333333],[1],[0],[0],[2.4973267000023043],['target'],564319,001,2024-10-10_16h19.38.940,visual search,2024.1.5,None,2024-10-10 16h20.28.384310 +0530,
104,0,104,0,199.50260829999752,,199.4708060999983,5,199.50260829999752,199.50260829999752,0.017128599996794946,200.50360969999747,200.92341379998834,[0.29333333333333333],[0.4166666666666667],[1],[0],[0],[1.4358466999983648],['target'],564319,001,2024-10-10_16h19.38.940,visual search,2024.1.5,None,2024-10-10 16h20.28.384310 +0530,
105,0,105,0,200.98249539999233,,200.9273411999893,10,200.98249539999233,200.98249539999233,0.03546769999957178,202.00354679999873,203.16491069999756,[-0.23083333333333333],[-0.2658333333333333],[1],[0],[0],[2.202334299989161],['target'],564319,001,2024-10-10_16h19.38.940,visual search,2024.1.5,None,2024-10-10 16h20.28.384310 +0530,
106,0,106,0,203.19918429999962,,203.16987329999392,5,203.19918429999962,203.19918429999962,0.016534199996385723,204.20419829999446,204.60567099999753,[-0.13083333333333333],[0.15583333333333332],[1],[0],[0],[1.419412100003683],['target'],564319,001,2024-10-10_16h19.38.940,visual search,2024.1.5,None,2024-10-10 16h20.28.384310 +0530,
107,0,107,0,204.64033489998837,,204.60945989999163,5,204.64033489998837,204.64033489998837,0.019870699994498864,205.65522899999633,205.77306139998836,[-0.09833333333333333],[0.4191666666666667],[1],[0],[0],[1.1439201000030152],[],564319,001,2024-10-10_16h19.38.940,visual search,2024.1.5,None,2024-10-10 16h20.28.384310 +0530,
108,0,108,0,205.85179669999343,,205.77839349998976,10,205.85179669999343,205.85179669999343,0.047199300010106526,206.86393149998912,209.24903719998838,[0.2808333333333333],[-0.285],[1],[0],[0],[3.4241834999993443],['target'],564319,001,2024-10-10_16h19.38.940,visual search,2024.1.5,None,2024-10-10 16h20.28.384310 +0530,
109,0,109,0,209.28018619999057,,209.25433060000069,5,209.28018619999057,209.28018619999057,0.017156699992483482,210.28837989999738,210.68958039999416,[-0.24],[-0.255],[1],[0],[0],[1.4184370000002673],['target'],564319,001,2024-10-10_16h19.38.940,visual search,2024.1.5,None,2024-10-10 16h20.28.384310 +0530,
110,0,110,0,210.72928799998772,,210.69368419999955,5,210.72928799998772,210.72928799998772,0.020184299995889887,211.7379809999984,212.48883629999182,[0.31416666666666665],[0.32416666666666666],[1],[0],[0],[1.7754202999931294],['target'],564319,001,2024-10-10_16h19.38.940,visual search,2024.1.5,None,2024-10-10 16h20.28.384310 +0530,
111,0,111,0,212.52297769999132,,212.4925546000013,5,212.52297769999132,212.52297769999132,0.019829400000162423,213.52045119999093,213.90708279999672,[-0.2816666666666667],[0.2925],[1],[0],[0],[1.394947399996454],['target'],564319,001,2024-10-10_16h19.38.940,visual search,2024.1.5,None,2024-10-10 16h20.28.384310 +0530,
112,0,112,0,213.94185479999578,,213.9109974999883,5,213.94185479999578,213.94185479999578,0.02023969999572728,214.9549709999992,215.4229459999915,[-0.42333333333333334],[0.4325],[1],[0],[0],[1.4919820000068285],[],564319,001,2024-10-10_16h19.38.940,visual search,2024.1.5,None,2024-10-10 16h20.28.384310 +0530,
113,0,113,0,215.478758799989,,215.42650119999598,10,215.478758799989,215.478758799989,0.0341993000038201,216.49169959999563,217.1177006999933,[-0.17166666666666666],[-0.06333333333333334],[1],[0],[0],[1.6572317000100156],['target'],564319,001,2024-10-10_16h19.38.940,visual search,2024.1.5,None,2024-10-10 16h20.28.384310 +0530,
114,0,114,0,217.18225859999075,,217.1210740999959,10,217.18225859999075,217.18225859999075,0.03395720000844449,218.20916529999522,220.67544639999687,[0.2633333333333333],[0.30583333333333335],[1],[0],[0],[3.5206842000043252],['target'],564319,001,2024-10-10_16h19.38.940,visual search,2024.1.5,None,2024-10-10 16h20.28.384310 +0530,
115,0,115,0,220.7111111999984,,220.6787978999928,5,220.7111111999984,220.7111111999984,0.020049400001880713,221.72145259998797,222.37298129999544,[0.31166666666666665],[-0.17166666666666666],[1],[0],[0],[1.6743698000063887],['target'],564319,001,2024-10-10_16h19.38.940,visual search,2024.1.5,None,2024-10-10 16h20.28.384310 +0530,
116,0,116,0,222.4070756000001,,222.37690779998957,5,222.4070756000001,222.4070756000001,0.019632399998954497,223.42203699999664,224.72415989999718,[-0.4766666666666667],[0.3516666666666667],[1],[0],[0],[2.3279983999964315],['target'],564319,001,2024-10-10_16h19.38.940,visual search,2024.1.5,None,2024-10-10 16h20.28.384310 +0530,
117,0,117,0,224.75853979999374,,224.72808979998808,5,224.75853979999374,224.75853979999374,0.020442200009711087,225.77099449999514,226.99049829998694,[0.42583333333333334],[-0.37166666666666665],[1],[0],[0],[2.2422621000005165],['target'],564319,001,2024-10-10_16h19.38.940,visual search,2024.1.5,None,2024-10-10 16h20.28.384310 +0530,
118,0,118,0,227.02305859999615,,226.9941039999976,5,227.02305859999615,227.02305859999615,0.01922020000347402,228.02300239999022,229.42272799999046,[0.31333333333333335],[-0.3],[1],[0],[0],[2.4095190999942133],['target'],564319,001,2024-10-10_16h19.38.940,visual search,2024.1.5,None,2024-10-10 16h20.28.384310 +0530,
119,0,119,0,229.4572490999999,,229.42719759998727,5,229.4572490999999,229.4572490999999,0.02012970000214409,230.4718317999941,231.03955059999134,[0.2608333333333333],[0.285],[1],[0],[0],[1.5924801000073785],['target'],564319,001,2024-10-10_16h19.38.940,visual search,2024.1.5,None,2024-10-10 16h20.28.384310 +0530,
120,0,120,0,231.10329799998726,,231.04341439998825,10,231.10329799998726,231.10329799998726,0.035383700000238605,232.11072959999728,232.881395599994,[0.43333333333333335],[0.4225],[1],[0],[0],[1.8029137999983504],['target'],564319,001,2024-10-10_16h19.38.940,visual search,2024.1.5,None,2024-10-10 16h20.28.384310 +0530,
121,0,121,0,232.915599999993,,232.88711669998884,5,232.915599999993,232.915599999993,0.01850239999475889,233.92079099999683,234.6736888000014,[-0.18166666666666667],[-0.19916666666666666],[1],[0],[0],[1.7688305000046967],['target'],564319,001,2024-10-10_16h19.38.940,visual search,2024.1.5,None,2024-10-10 16h20.28.384310 +0530,
122,0,122,0,234.71667129998968,,234.67794629999844,5,234.71667129998968,234.71667129998968,0.028462000002036802,235.72491069999523,236.12419759998738,[0.30416666666666664],[0.0325],[1],[0],[0],[1.4181781000079354],['target'],564319,001,2024-10-10_16h19.38.940,visual search,2024.1.5,None,2024-10-10 16h20.28.384310 +0530,
123,0,123,0,236.17693139999756,,236.1277304999967,10,236.17693139999756,236.17693139999756,0.032787100004497916,237.1982510999951,237.72658269999374,[0.215],[0.21666666666666667],[1],[0],[0],[1.5660285000049043],['target'],564319,001,2024-10-10_16h19.38.940,visual search,2024.1.5,None,2024-10-10 16h20.28.384310 +0530,
124,0,124,0,237.75953189999564,,237.72949179999705,5,237.75953189999564,237.75953189999564,0.018478000012692064,238.77287219998834,239.3061403999891,[0.35083333333333333],[-0.4475],[1],[0],[0],[1.558280899989768],['target'],564319,001,2024-10-10_16h19.38.940,visual search,2024.1.5,None,2024-10-10 16h20.28.384310 +0530,
125,0,125,0,239.3612296999927,,239.31032389999018,10,239.3612296999927,239.3612296999927,0.03446779999649152,240.38074269999925,241.3583435999899,[0.15666666666666668],[0.365],[1],[0],[0],[2.013915300005465],['target'],564319,001,2024-10-10_16h19.38.940,visual search,2024.1.5,None,2024-10-10 16h20.28.384310 +0530,
126,0,126,0,241.39087589998962,,241.36162070000137,5,241.39087589998962,241.39087589998962,0.019649399997433648,242.40524589999404,243.15675969999575,[0.4175],[-0.07],[1],[0],[0],[1.7756405000109226],['target'],564319,001,2024-10-10_16h19.38.940,visual search,2024.1.5,None,2024-10-10 16h20.28.384310 +0530,
127,0,127,0,243.19178159999137,,243.16136889999325,5,243.19178159999137,243.19178159999137,0.020239700010279194,244.20651439999347,245.2401045000006,[-0.16666666666666666],[0.375],[1],[0],[0],[2.058784900000319],['target'],564319,001,2024-10-10_16h19.38.940,visual search,2024.1.5,None,2024-10-10 16h20.28.384310 +0530,
128,0,128,0,245.30165280000074,,245.244334899995,10,245.30165280000074,245.30165280000074,0.03461349999997765,246.31532169999264,247.16017649999412,[0.3333333333333333],[0.26666666666666666],[1],[0],[0],[1.8814221000066027],['target'],564319,001,2024-10-10_16h19.38.940,visual search,2024.1.5,None,2024-10-10 16h20.28.384310 +0530,
129,0,129,0,247.19196789999842,,247.1641754000011,5,247.19196789999842,247.19196789999842,0.018444799992721528,248.20586119999643,248.7067018999951,[-0.12166666666666667],[0.1075],[1],[0],[0],[1.5244030000030762],['target'],564319,001,2024-10-10_16h19.38.940,visual search,2024.1.5,None,2024-10-10 16h20.28.384310 +0530,
130,0,130,0,248.7657540999935,,248.71093609998934,10,248.7657540999935,248.7657540999935,0.0355377999949269,249.77990919999138,250.74516589999257,[-0.016666666666666666],[-0.2808333333333333],[1],[0],[0],[1.9989377000019886],['target'],564319,001,2024-10-10_16h19.38.940,visual search,2024.1.5,None,2024-10-10 16h20.28.384310 +0530,
131,0,131,0,250.80734790000133,,250.74863750000077,10,250.80734790000133,250.80734790000133,0.0360763000062434,251.83418159998837,254.15866359999927,[-0.43083333333333335],[-0.48],[1],[0],[0],[3.3741274000058183],['target'],564319,001,2024-10-10_16h19.38.940,visual search,2024.1.5,None,2024-10-10 16h20.28.384310 +0530,
132,0,132,0,254.2281362999929,,254.16210629999114,10,254.2281362999929,254.2281362999929,0.032105699996463954,255.27765929998714,260.0692241999932,[0.35833333333333334],[-0.11083333333333334],[1],[0],[0],[5.874725500005297],['target'],564319,001,2024-10-10_16h19.38.940,visual search,2024.1.5,None,2024-10-10 16h20.28.384310 +0530,
133,0,133,0,260.1441311999952,,260.0741854999942,10,260.1441311999952,260.1441311999952,0.03791369999817107,261.1852336999873,262.1876770999952,[-0.06666666666666667],[0.115],[1],[0],[0],[2.0754974000010407],['target'],564319,001,2024-10-10_16h19.38.940,visual search,2024.1.5,None,2024-10-10 16h20.28.384310 +0530,
134,0,134,0,262.21883679999155,,262.19103769998765,5,262.21883679999155,262.21883679999155,0.018052400002488866,263.221795999998,263.9257309999957,[-0.065],[-0.32416666666666666],[1],[0],[0],[1.7166005000035511],['target'],564319,001,2024-10-10_16h19.38.940,visual search,2024.1.5,None,2024-10-10 16h20.28.384310 +0530,
135,0,135,0,264.08241930000077,,263.9295010999922,10,264.08241930000077,264.08241930000077,0.13240899999800604,265.0959375999955,265.8103070999932,[-0.21916666666666668],[0.33166666666666667],[1],[0],[0],[1.748679300013464],['target'],564319,001,2024-10-10_16h19.38.940,visual search,2024.1.5,None,2024-10-10 16h20.28.384310 +0530,
136,0,136,0,265.8787035999994,,265.814258399987,10,265.8787035999994,265.8787035999994,0.03392740001436323,266.88726119999774,267.68588889999955,[0.19583333333333333],[0.23166666666666666],[1],[0],[0],[1.8383165999985067],['target'],564319,001,2024-10-10_16h19.38.940,visual search,2024.1.5,None,2024-10-10 16h20.28.384310 +0530,
137,0,137,0,267.7671820999967,,267.6904435999895,10,267.7671820999967,267.7671820999967,0.04074620000028517,268.8015427999926,269.40565639999113,[0.008333333333333333],[-0.08416666666666667],[1],[0],[0],[1.6748370999994222],['target'],564319,001,2024-10-10_16h19.38.940,visual search,2024.1.5,None,2024-10-10 16h20.28.384310 +0530,
138,0,138,0,269.48140489999787,,269.4090264999977,10,269.48140489999787,269.48140489999787,0.03588860000309069,270.52412649999314,272.0254852999933,[-0.33416666666666667],[0.016666666666666666],[1],[0],[0],[2.5807692000089446],['target'],564319,001,2024-10-10_16h19.38.940,visual search,2024.1.5,None,2024-10-10 16h20.28.384310 +0530,
139,0,139,0,272.056297099989,,272.02845239998715,5,272.056297099989,272.056297099989,0.017960400000447407,273.0559469,273.24124249999295,[-0.31583333333333335],[0.0625],[1],[0],[0],[1.1949337999976706],['target'],564319,001,2024-10-10_16h19.38.940,visual search,2024.1.5,None,2024-10-10 16h20.28.384310 +0530,
140,0,140,0,273.29945880000014,,273.2450847,10,273.29945880000014,273.29945880000014,0.03581299999495968,274.31870039999194,275.3847276999877,[0.1475],[-0.37916666666666665],[1],[0],[0],[2.1040092000039294],['target'],564319,001,2024-10-10_16h19.38.940,visual search,2024.1.5,None,2024-10-10 16h20.28.384310 +0530,
141,0,141,0,275.4146638999955,,275.38902619999135,5,275.4146638999955,275.4146638999955,0.01625369999965187,276.4231257999927,276.80911039999046,[-0.25583333333333336],[-0.04083333333333333],[1],[0],[0],[1.403997800007346],['target'],564319,001,2024-10-10_16h19.38.940,visual search,2024.1.5,None,2024-10-10 16h20.28.384310 +0530,
142,0,142,0,276.84166659999755,,276.81244850000076,5,276.84166659999755,276.84166659999755,0.01855329998943489,,277.63998629999696,[-0.23916666666666667],[-0.0525],[1],[0],[0],[0.8091630999988411],['target'],564319,001,2024-10-10_16h19.38.940,visual search,2024.1.5,None,2024-10-10 16h20.28.384310 +0530,
143,0,143,0,277.69768519999343,,277.6440767999884,10,277.69768519999343,277.69768519999343,0.03504770000290591,278.7031607999961,279.12317529998836,[-0.14833333333333334],[0.185],[1],[0],[0],[1.4443264000001363],['target'],564319,001,2024-10-10_16h19.38.940,visual search,2024.1.5,None,2024-10-10 16h20.28.384310 +0530,
144,0,144,0,279.1576594999933,,279.126477599988,5,279.1576594999933,279.1576594999933,0.01961630000732839,280.17339099998935,281.2905010999966,[0.13416666666666666],[-0.31333333333333335],[1],[0],[0],[2.144591499993112],['target'],564319,001,2024-10-10_16h19.38.940,visual search,2024.1.5,None,2024-10-10 16h20.28.384310 +0530,
145,0,145,0,281.3240802999935,,281.2942093999882,5,281.3240802999935,281.3240802999935,0.019734700006665662,282.3238549999951,283.95786009999574,[0.02],[-0.44666666666666666],[1],[0],[0],[2.6442490999907022],['target'],564319,001,2024-10-10_16h19.38.940,visual search,2024.1.5,None,2024-10-10 16h20.28.384310 +0530,
146,0,146,0,284.0145457999897,,283.9614425999898,10,284.0145457999897,284.0145457999897,0.03459619999921415,285.0405146999983,286.5525457999902,[0.13416666666666666],[0.16916666666666666],[1],[0],[0],[2.5566230999975232],['target'],564319,001,2024-10-10_16h19.38.940,visual search,2024.1.5,None,2024-10-10 16h20.28.384310 +0530,
147,0,147,0,286.59007479999855,,286.55672789999517,5,286.59007479999855,286.59007479999855,0.022114000006695278,287.5894527999917,288.09254990000045,[0.19583333333333333],[0.27166666666666667],[1],[0],[0],[1.513961399992695],['target'],564319,001,2024-10-10_16h19.38.940,visual search,2024.1.5,None,2024-10-10 16h20.28.384310 +0530,
148,0,148,0,288.1497049999889,,288.09628449998854,10,288.1497049999889,288.1497049999889,0.03635500000382308,289.167386000001,289.98294539999915,[0.2175],[0.21666666666666667],[1],[0],[0],[1.850628800006234],['target'],564319,001,2024-10-10_16h19.38.940,visual search,2024.1.5,None,2024-10-10 16h20.28.384310 +0530,
149,0,149,0,290.01937739999266,,289.9887105999951,5,290.01937739999266,290.01937739999266,0.017793699997127987,291.02330479999364,291.6418768000003,[-0.18666666666666668],[-0.26416666666666666],[1],[0],[0],[1.6360835000086809],['target'],564319,001,2024-10-10_16h19.38.940,visual search,2024.1.5,None,2024-10-10 16h20.28.384310 +0530,
150,0,150,0,291.70275719999336,,291.64517909999995,10,291.70275719999336,291.70275719999336,0.03664769999159034,292.71571259999473,293.5937985999917,[-0.20583333333333334],[-0.12583333333333332],[1],[0],[0],[1.912017000009655],['target'],564319,001,2024-10-10_16h19.38.940,visual search,2024.1.5,None,2024-10-10 16h20.28.384310 +0530,
151,0,151,0,293.6320403999998,,293.597091299991,5,293.6320403999998,293.6320403999998,0.01905129999795463,294.6404123999964,295.0416370999883,[-0.03916666666666667],[0.43],[1],[0],[0],[1.4255758999934187],['target'],564319,001,2024-10-10_16h19.38.940,visual search,2024.1.5,None,2024-10-10 16h20.28.384310 +0530,
152,0,152,0,295.07887719999417,,295.0457055000006,5,295.07887719999417,295.07887719999417,0.02054919999500271,296.09031319999485,296.9085402999917,[0.4141666666666667],[0.065],[1],[0],[0],[1.842315999994753],['target'],564319,001,2024-10-10_16h19.38.940,visual search,2024.1.5,None,2024-10-10 16h20.28.384310 +0530,
153,0,153,0,296.9612395000004,,296.9118604999967,10,296.9612395000004,296.9612395000004,0.03259489999618381,297.98150179999357,298.90433309999935,[-0.4583333333333333],[0.01],[1],[0],[0],[1.9601359000080265],['target'],564319,001,2024-10-10_16h19.38.940,visual search,2024.1.5,None,2024-10-10 16h20.28.384310 +0530,
154,0,154,0,298.97219770000083,,298.9076320999884,10,298.97219770000083,298.97219770000083,0.04129649999958929,299.99831679998897,302.9192961999943,[0.3725],[0.38916666666666666],[1],[0],[0],[3.9706043000041973],['target'],564319,001,2024-10-10_16h19.38.940,visual search,2024.1.5,None,2024-10-10 16h20.28.384310 +0530,
155,0,155,0,302.9505712999962,,302.9229527999996,5,302.9505712999962,302.9505712999962,0.018149900002754293,303.9559642999957,304.64322079998965,[0.3625],[0.0475],[1],[0],[0],[1.7023244999872986],['target'],564319,001,2024-10-10_16h19.38.940,visual search,2024.1.5,None,2024-10-10 16h20.28.384310 +0530,
156,0,156,0,304.68168850000075,,304.6473477999971,5,304.68168850000075,304.68168850000075,0.02009790000738576,305.6899487999908,306.325611399996,[-0.014166666666666666],[-0.26916666666666667],[1],[0],[0],[1.6587932000111323],['target'],564319,001,2024-10-10_16h19.38.940,visual search,2024.1.5,None,2024-10-10 16h20.28.384310 +0530,
157,0,157,0,306.3594197999919,,306.3293282999948,5,306.3594197999919,306.3594197999919,0.019751700005144812,307.3735130999994,308.4093656999903,[-0.42333333333333334],[0.004166666666666667],[1],[0],[0],[2.060653299995465],['target'],564319,001,2024-10-10_16h19.38.940,visual search,2024.1.5,None,2024-10-10 16h20.28.384310 +0530,
158,0,158,0,308.4670729999925,,308.41285269999935,10,308.4670729999925,308.4670729999925,0.03585820000444073,309.47147109999787,310.0027948999923,[0.3675],[0.35583333333333333],[1],[0],[0],[1.554365299991332],['target'],564319,001,2024-10-10_16h19.38.940,visual search,2024.1.5,None,2024-10-10 16h20.28.384310 +0530,
159,0,159,0,310.0675450999988,,310.0061684999964,10,310.0675450999988,310.0675450999988,0.033784100000048056,311.0962526999938,311.7081509999989,[0.13083333333333333],[-0.30333333333333334],[1],[0],[0],[1.668295700001181],['target'],564319,001,2024-10-10_16h19.38.940,visual search,2024.1.5,None,2024-10-10 16h20.28.384310 +0530,
160,0,160,0,311.77232629999344,,311.7110962000006,10,311.77232629999344,311.77232629999344,0.03100570000242442,312.8075865999999,313.17689339999924,[0.10333333333333333],[-0.008333333333333333],[1],[0],[0],[1.4349528000020655],['target'],564319,001,2024-10-10_16h19.38.940,visual search,2024.1.5,None,2024-10-10 16h20.28.384310 +0530,
161,0,161,0,313.2597284999938,,313.18015359999845,10,313.2597284999938,313.2597284999938,0.035229399989475496,314.293239599996,316.436936699989,[0.085],[0.45166666666666666],[1],[0],[0],[3.2206308000022545],['target'],564319,001,2024-10-10_16h19.38.940,visual search,2024.1.5,None,2024-10-10 16h20.28.384310 +0530,
162,0,162,0,316.47676469999715,,316.44297829999414,5,316.47676469999715,316.47676469999715,0.019269600001280196,317.49007159999746,317.94230699999025,[0.14083333333333334],[0.2375],[1],[0],[0],[1.480622900009621],['target'],564319,001,2024-10-10_16h19.38.940,visual search,2024.1.5,None,2024-10-10 16h20.28.384310 +0530,
163,0,163,0,318.0064668999985,,317.9462029999995,10,318.0064668999985,318.0064668999985,0.03574549999029841,319.03168919999734,321.0193430999934,[-0.08166666666666667],[0.48833333333333334],[1],[0],[0],[3.0377389999921434],['target'],564319,001,2024-10-10_16h19.38.940,visual search,2024.1.5,None,2024-10-10 16h20.28.384310 +0530,
164,0,164,0,321.05329399999755,,321.0225691999949,5,321.05329399999755,321.05329399999755,0.018693699996219948,322.0579679999937,322.59240860000136,[-0.3475],[0.0008333333333333334],[1],[0],[0],[1.550816200004192],['target'],564319,001,2024-10-10_16h19.38.940,visual search,2024.1.5,None,2024-10-10 16h20.28.384310 +0530,
165,0,165,0,322.62763869999617,,322.59658379999746,5,322.62763869999617,322.62763869999617,0.018881900003179908,323.64093299998785,324.0750182999909,[0.24],[-0.0625],[1],[0],[0],[1.459797500006971],['target'],564319,001,2024-10-10_16h19.38.940,visual search,2024.1.5,None,2024-10-10 16h20.28.384310 +0530,
166,0,166,0,324.1362645999907,,324.0791565999971,10,324.1362645999907,324.1362645999907,0.035937699998612516,325.14243159999023,328.06283229999826,[0.27166666666666667],[0.48333333333333334],[1],[0],[0],[3.9481755000015255],['target'],564319,001,2024-10-10_16h19.38.940,visual search,2024.1.5,None,2024-10-10 16h20.28.384310 +0530,
167,0,167,0,328.09546279998904,,328.066207099997,5,328.09546279998904,328.09546279998904,0.019812200000160374,329.1081422999996,329.5745816999988,[-0.3383333333333333],[0.0125],[1],[0],[0],[1.4887355999962892],['target'],564319,001,2024-10-10_16h19.38.940,visual search,2024.1.5,None,2024-10-10 16h20.28.384310 +0530,
168,0,168,0,329.63197989999026,,329.57863589999033,10,329.63197989999026,329.63197989999026,0.034137000009650365,330.6409241999936,331.0154956999904,[-0.43166666666666664],[0.0925],[1],[0],[0],[1.403065599995898],['target'],564319,001,2024-10-10_16h19.38.940,visual search,2024.1.5,None,2024-10-10 16h20.28.384310 +0530,
169,0,169,0,331.08107679999375,,331.0198606999911,10,331.08107679999375,331.08107679999375,0.03377199999522418,332.099115399993,332.50798089998716,[0.12083333333333333],[0.16916666666666666],[1],[0],[0],[1.4549388000014005],['target'],564319,001,2024-10-10_16h19.38.940,visual search,2024.1.5,None,2024-10-10 16h20.28.384310 +0530,
170,0,170,0,332.5463113000005,,332.51379059998726,5,332.5463113000005,332.5463113000005,0.02374799999233801,333.558337800001,334.3260537999886,[0.44416666666666665],[0.051666666666666666],[1],[0],[0],[1.7888326000102097],['target'],564319,001,2024-10-10_16h19.38.940,visual search,2024.1.5,None,2024-10-10 16h20.28.384310 +0530,
171,0,171,0,334.3811588999961,,334.33006969999406,10,334.3811588999961,334.3811588999961,0.033080299996072426,335.4030519999942,336.31228239998745,[-0.34833333333333333],[-0.11166666666666666],[1],[0],[0],[1.9494662000070093],['target'],564319,001,2024-10-10_16h19.38.940,visual search,2024.1.5,None,2024-10-10 16h20.28.384310 +0530,
172,0,172,0,336.37873829998716,,336.3156799999997,10,336.37873829998716,336.37873829998716,0.034609700000146404,337.3878504999884,338.69393709998985,[0.25166666666666665],[-0.245],[1],[0],[0],[2.3439712000108557],['target'],564319,001,2024-10-10_16h19.38.940,visual search,2024.1.5,None,2024-10-10 16h20.28.384310 +0530,
173,0,173,0,338.72959959998843,,338.6972618,5,338.72959959998843,338.72959959998843,0.019052799994824454,339.740152399987,340.2255077999871,[-0.25916666666666666],[0.3225],[1],[0],[0],[1.5094035000074655],['target'],564319,001,2024-10-10_16h19.38.940,visual search,2024.1.5,None,2024-10-10 16h20.28.384310 +0530,
174,0,174,0,340.2602790999954,,340.2293301999889,5,340.2602790999954,340.2602790999954,0.020044199991389178,341.2736050999956,341.7579015999945,[0.4558333333333333],[0.0575],[1],[0],[0],[1.508962200008682],['target'],564319,001,2024-10-10_16h19.38.940,visual search,2024.1.5,None,2024-10-10 16h20.28.384310 +0530,
175,0,175,0,341.79147250000096,,341.76150939999206,5,341.79147250000096,341.79147250000096,0.019327700007124804,342.7912404999952,343.19364009999845,[-0.3825],[0.4041666666666667],[1],[0],[0],[1.412962600006722],['target'],564319,001,2024-10-10_16h19.38.940,visual search,2024.1.5,None,2024-10-10 16h20.28.384310 +0530,
176,0,176,0,343.22892399999546,,343.19769339999766,5,343.22892399999546,343.22892399999546,0.021268099997541867,344.2409493999876,344.64231669998844,[0.035],[-0.2125],[1],[0],[0],[1.4237013000092702],['target'],564319,001,2024-10-10_16h19.38.940,visual search,2024.1.5,None,2024-10-10 16h20.28.384310 +0530,
177,0,177,0,344.70347209999454,,344.6461588999955,10,344.70347209999454,344.70347209999454,0.03536179999355227,345.72369459999027,346.547470599995,[-0.2475],[0.4666666666666667],[1],[0],[0],[1.8662613000051351],['target'],564319,001,2024-10-10_16h19.38.940,visual search,2024.1.5,None,2024-10-10 16h20.28.384310 +0530,
178,0,178,0,346.5800702999986,,346.5508417999954,5,346.5800702999986,346.5800702999986,0.01952030000393279,347.5909299999912,348.8595792999986,[-0.25166666666666665],[-0.4825],[1],[0],[0],[2.289383600000292],['target'],564319,001,2024-10-10_16h19.38.940,visual search,2024.1.5,None,2024-10-10 16h20.28.384310 +0530,
179,0,179,0,348.9219782,,348.86309079999046,10,348.9219782,348.9219782,0.03422229998977855,349.9300985999871,353.0789422999951,[0.19],[0.15583333333333332],[1],[0],[0],[4.181943999996292],['target'],564319,001,2024-10-10_16h19.38.940,visual search,2024.1.5,None,2024-10-10 16h20.28.384310 +0530,
180,0,180,0,353.1113680999988,,353.0819313999964,5,353.1113680999988,353.1113680999988,0.018319399998290464,354.12519559999055,354.4758991999988,[0.21666666666666667],[0.15083333333333335],[1],[0],[0],[1.3757141999958549],['target'],564319,001,2024-10-10_16h19.38.940,visual search,2024.1.5,None,2024-10-10 16h20.28.384310 +0530,
181,0,181,0,354.5356557999912,,354.479863799992,10,354.5356557999912,354.5356557999912,0.03588909999234602,355.5454905999941,356.47772469998745,[-0.015],[0.4816666666666667],[1],[0],[0],[1.9620845000026748],['target'],564319,001,2024-10-10_16h19.38.940,visual search,2024.1.5,None,2024-10-10 16h20.28.384310 +0530,
182,0,182,0,356.53979289998824,,356.4806899999967,10,356.53979289998824,356.53979289998824,0.03328820000751875,357.5598450999969,359.0278917999967,[-0.485],[-0.45166666666666666],[1],[0],[0],[2.5140731999999844],['target'],564319,001,2024-10-10_16h19.38.940,visual search,2024.1.5,None,2024-10-10 16h20.28.384310 +0530,
183,0,183,0,359.0616191000008,,359.0312777999934,5,359.0616191000008,359.0616191000008,0.01940029999241233,360.07535039998766,360.70993649998854,[0.22166666666666668],[0.07333333333333333],[1],[0],[0],[1.659432000000379],['target'],564319,001,2024-10-10_16h19.38.940,visual search,2024.1.5,None,2024-10-10 16h20.28.384310 +0530,
184,0,184,0,360.74448909999046,,360.7139074000006,5,360.74448909999046,360.74448909999046,0.020410199998877943,361.7577072999993,362.2094410999998,[-0.33916666666666667],[0.315],[1],[0],[0],[1.475441900009173],['target'],564319,001,2024-10-10_16h19.38.940,visual search,2024.1.5,None,2024-10-10 16h20.28.384310 +0530,
185,0,185,0,362.27476499999466,,362.2135348999873,10,362.27476499999466,362.27476499999466,0.04327209999610204,363.2870813999907,364.31424359999073,[0.4841666666666667],[-0.10333333333333333],[1],[0],[0],[2.057923499989556],['target'],564319,001,2024-10-10_16h19.38.940,visual search,2024.1.5,None,2024-10-10 16h20.28.384310 +0530,
186,0,186,0,364.3480581999902,,364.31726869998965,5,364.3480581999902,364.3480581999902,0.018593700006022118,365.3582897999877,365.7111287999869,[-0.07],[0.16416666666666666],[1],[0],[0],[1.37544999999227],['target'],564319,001,2024-10-10_16h19.38.940,visual search,2024.1.5,None,2024-10-10 16h20.28.384310 +0530,
187,0,187,0,365.77119649999077,,365.7148784999881,10,365.77119649999077,365.77119649999077,0.035541299992473796,366.77525120000064,367.3695483999909,[-0.44666666666666666],[0.16833333333333333],[1],[0],[0],[1.619361300006858],['target'],564319,001,2024-10-10_16h19.38.940,visual search,2024.1.5,None,2024-10-10 16h20.28.384310 +0530,
188,0,188,0,367.4041673999891,,367.3729095999879,5,367.4041673999891,367.4041673999891,0.017689300002530217,368.4078397999983,369.3108949999878,[0.30833333333333335],[-0.40166666666666667],[1],[0],[0],[1.9207679999963148],['target'],564319,001,2024-10-10_16h19.38.940,visual search,2024.1.5,None,2024-10-10 16h20.28.384310 +0530,
189,0,189,0,369.34432379998907,,369.3136579999991,5,369.34432379998907,369.34432379998907,0.018445099995005876,370.3584314999898,371.20960119999654,[-0.25666666666666665],[0.37333333333333335],[1],[0],[0],[1.8775844999909168],['target'],564319,001,2024-10-10_16h19.38.940,visual search,2024.1.5,None,2024-10-10 16h20.28.384310 +0530,
190,0,190,0,371.24478689998796,,371.2131010999874,5,371.24478689998796,371.24478689998796,0.020133199999690987,372.2586394999962,372.7755604999984,[-0.04583333333333333],[-0.30666666666666664],[1],[0],[0],[1.5426200999936555],['target'],564319,001,2024-10-10_16h19.38.940,visual search,2024.1.5,None,2024-10-10 16h20.28.384310 +0530,
191,0,191,0,372.83923389999836,,372.7794709999871,10,372.83923389999836,372.83923389999836,0.03764680000313092,373.8433970999904,374.4503701999929,[-0.315],[-0.2608333333333333],[1],[0],[0],[1.6332999000005657],['target'],564319,001,2024-10-10_16h19.38.940,visual search,2024.1.5,None,2024-10-10 16h20.28.384310 +0530,
192,0,192,0,374.4941892999923,,374.45953399999416,5,374.4941892999923,374.4941892999923,0.026376699999673292,375.5123653999908,376.21008819999406,[0.32666666666666666],[-0.37833333333333335],[1],[0],[0],[1.7268829999957234],['target'],564319,001,2024-10-10_16h19.38.940,visual search,2024.1.5,None,2024-10-10 16h20.28.384310 +0530,
193,0,193,0,376.2706487999967,,376.2135810999898,10,376.2706487999967,376.2706487999967,0.03558409999823198,377.2856333999953,378.05404639999324,[-0.14583333333333334],[-0.38666666666666666],[1],[0],[0],[1.8047616999974707],['target'],564319,001,2024-10-10_16h19.38.940,visual search,2024.1.5,None,2024-10-10 16h20.28.384310 +0530,
194,0,194,0,378.1180366999906,,378.05801929999143,10,378.1180366999906,378.1180366999906,0.03566080000018701,379.12944069999503,382.2709407999937,[0.5],[-0.24833333333333332],[1],[0],[0],[4.177608199999668],['target'],564319,001,2024-10-10_16h19.38.940,visual search,2024.1.5,None,2024-10-10 16h20.28.384310 +0530,
195,0,195,0,382.3035494999931,,382.2742448999925,5,382.3035494999931,382.3035494999931,0.01989029999822378,383.30885429999034,383.7274336999981,[0.4708333333333333],[0.17083333333333334],[1],[0],[0],[1.43345149999368],['target'],564319,001,2024-10-10_16h19.38.940,visual search,2024.1.5,None,2024-10-10 16h20.28.384310 +0530,
196,0,196,0,383.76504269998986,,383.7308495999896,5,383.76504269998986,383.76504269998986,0.019497599991154857,384.7743088999996,385.8773291999969,[0.07583333333333334],[-0.095],[1],[0],[0],[2.1269324000022607],['target'],564319,001,2024-10-10_16h19.38.940,visual search,2024.1.5,None,2024-10-10 16h20.28.384310 +0530,
197,0,197,0,385.90999419998843,,385.8814407999889,5,385.90999419998843,385.90999419998843,0.019377900011022575,386.92484789999435,387.4763561,[0.305],[-0.0375],[1],[0],[0],[1.575837500000489],['target'],564319,001,2024-10-10_16h19.38.940,visual search,2024.1.5,None,2024-10-10 16h20.28.384310 +0530,
198,0,198,0,387.5109655999986,,387.4803280999913,5,387.5109655999986,387.5109655999986,0.020673899998655543,388.52431299998716,389.26078569999663,[-0.135],[-0.29333333333333333],[1],[0],[0],[1.7599859000038123],['target'],564319,001,2024-10-10_16h19.38.940,visual search,2024.1.5,None,2024-10-10 16h20.28.384310 +0530,
199,0,199,0,389.3155024999869,,389.264268599989,10,389.3155024999869,389.3155024999869,0.034278599996468984,390.3247016999958,390.8368832999986,[0.25666666666666665],[-0.008333333333333333],[1],[0],[0],[1.5385724999941885],['target'],564319,001,2024-10-10_16h19.38.940,visual search,2024.1.5,None,2024-10-10 16h20.28.384310 +0530,
