trials.thisRepN,trials.thisTrialN,trials.thisN,trials.thisIndex,thisRow.t,notes,trial.started,num_distr,fixation.started,target.started,mouse.started,fixation.stopped,trial.stopped,mouse.x,mouse.y,mouse.leftButton,mouse.midButton,mouse.rightButton,mouse.time,mouse.clicked_name,participant,session,date,expName,psychopyVersion,frameRate,expStart,
0,0,0,0,0.04153399998904206,,0.00663459999486804,5,0.04153399998904206,0.04153399998904206,0.030953599998611026,1.0486411999881966,1.384427599987248,[0.10583333333333333],[-0.15416666666666667],[1],[0],[0],[1.351864399999613],[],604336,001,2024-10-10_15h42.27.798,visual search,2024.1.5,None,2024-10-10 15h42.35.971291 +0530,
1,0,1,0,1.4209783999976935,,1.3903419999987818,5,1.4209783999976935,1.4209783999976935,0.0214778999943519,2.432315699988976,2.570442099997308,[-0.14833333333333334],[-0.18666666666666668],[1],[0],[0],[1.1577585000050021],[],604336,001,2024-10-10_15h42.27.798,visual search,2024.1.5,None,2024-10-10 15h42.35.971291 +0530,
2,0,2,0,2.6061509999999544,,2.5757983999938006,5,2.6061509999999544,2.6061509999999544,0.023095600001397543,3.6161044999898877,4.301515999992262,[-0.45],[0.4575],[1],[0],[0],[1.7028886000043713],[],604336,001,2024-10-10_15h42.27.798,visual search,2024.1.5,None,2024-10-10 15h42.35.971291 +0530,
3,0,3,0,4.3577852999878814,,4.30668660000083,10,4.3577852999878814,4.3577852999878814,0.03702599999087397,5.365254599993932,5.516152099997271,[-0.17416666666666666],[0.4066666666666667],[1],[0],[0],[1.1731559999898309],[],604336,001,2024-10-10_15h42.27.798,visual search,2024.1.5,None,2024-10-10 15h42.35.971291 +0530,
4,0,4,0,5.576491999992868,,5.519217599998228,10,5.576491999992868,5.576491999992868,0.03663030000461731,6.5953584999952,7.072899899998447,[-0.18],[0.0275],[1],[0],[0],[1.517261500004679],['target'],604336,001,2024-10-10_15h42.27.798,visual search,2024.1.5,None,2024-10-10 15h42.35.971291 +0530,
5,0,5,0,7.100136499997461,,7.076164400001289,5,7.100136499997461,7.100136499997461,0.01622479999787174,8.115895199996885,8.40105699999549,[0.10166666666666667],[0.4725],[1],[0],[0],[1.3087127000035252],['target'],604336,001,2024-10-10_15h42.27.798,visual search,2024.1.5,None,2024-10-10 15h42.35.971291 +0530,
6,0,6,0,8.430744299999787,,8.405699599999934,5,8.430744299999787,8.430744299999787,0.017705499994917773,9.432113699993351,9.886116499998025,[0.4725],[0.14166666666666666],[1],[0],[0],[1.4625316000019666],['target'],604336,001,2024-10-10_15h42.27.798,visual search,2024.1.5,None,2024-10-10 15h42.35.971291 +0530,
7,0,7,0,9.916654000000563,,9.89060569999856,5,9.916654000000563,9.916654000000563,0.01867790000687819,10.932149699990987,11.38441069998953,[-0.09833333333333333],[-0.0975],[1],[0],[0],[1.475166200005333],[],604336,001,2024-10-10_15h42.27.798,visual search,2024.1.5,None,2024-10-10 15h42.35.971291 +0530,
8,0,8,0,11.419100200000685,,11.389047099990421,5,11.419100200000685,11.419100200000685,0.02220379999198485,12.43211799999699,12.784036999990349,[-0.35],[0.42833333333333334],[1],[0],[0],[1.3730612000072142],['target'],604336,001,2024-10-10_15h42.27.798,visual search,2024.1.5,None,2024-10-10 15h42.35.971291 +0530,
9,0,9,0,12.839830999990227,,12.788377499993658,10,12.839830999990227,12.839830999990227,0.03628770000068471,13.844045199992252,14.123206799995387,[-0.3358333333333333],[0.035833333333333335],[1],[0],[0],[1.2988984000112396],['target'],604336,001,2024-10-10_15h42.27.798,visual search,2024.1.5,None,2024-10-10 15h42.35.971291 +0530,
10,0,10,0,14.197580799998832,,14.127574999991339,10,14.197580799998832,14.197580799998832,0.039840400000684895,15.215919800000847,15.898781699987012,[0.5025],[-0.23583333333333334],[1],[0],[0],[1.7316640000062762],['target'],604336,001,2024-10-10_15h42.27.798,visual search,2024.1.5,None,2024-10-10 15h42.35.971291 +0530,
11,0,11,0,15.968718699994497,,15.90183529999922,10,15.968718699994497,15.968718699994497,0.04034750000573695,17.001627199992072,17.471162999994704,[-0.17583333333333334],[0.115],[1],[0],[0],[1.5292060999927344],[],604336,001,2024-10-10_15h42.27.798,visual search,2024.1.5,None,2024-10-10 15h42.35.971291 +0530,
12,0,12,0,17.53909869999916,,17.47433879999153,10,17.53909869999916,17.53909869999916,0.03203879999637138,18.596790099996724,19.35639749999973,[-0.2975],[0.3283333333333333],[1],[0],[0],[1.850213800003985],['target'],604336,001,2024-10-10_15h42.27.798,visual search,2024.1.5,None,2024-10-10 15h42.35.971291 +0530,
13,0,13,0,19.436310799996136,,19.35959300000104,10,19.436310799996136,19.436310799996136,0.03729959999327548,20.501518299992313,20.89500939998834,[-0.4166666666666667],[0.17333333333333334],[1],[0],[0],[1.498406700004125],['target'],604336,001,2024-10-10_15h42.27.798,visual search,2024.1.5,None,2024-10-10 15h42.35.971291 +0530,
14,0,14,0,20.97324049999588,,20.899065899997368,10,20.97324049999588,20.97324049999588,0.030910000001313165,22.042424599989317,22.280211799996323,[-0.44666666666666666],[0.065],[1],[0],[0],[1.3503712999954587],['target'],604336,001,2024-10-10_15h42.27.798,visual search,2024.1.5,None,2024-10-10 15h42.35.971291 +0530,
15,0,15,0,22.379974899988156,,22.290806399993016,10,22.379974899988156,22.379974899988156,0.040931700001237914,23.444378100000904,24.80118009999569,[0.051666666666666666],[0.2608333333333333],[1],[0],[0],[2.4709476999996696],['target'],604336,001,2024-10-10_15h42.27.798,visual search,2024.1.5,None,2024-10-10 15h42.35.971291 +0530,
16,0,16,0,24.895065499993507,,24.80443029999151,10,24.895065499993507,24.895065499993507,0.032361000005039386,25.932579399988754,26.05616619999637,[-0.345],[0.2966666666666667],[1],[0],[0],[1.219552599999588],['target'],604336,001,2024-10-10_15h42.27.798,visual search,2024.1.5,None,2024-10-10 15h42.35.971291 +0530,
17,0,17,0,26.084454699986964,,26.05965149999247,5,26.084454699986964,26.084454699986964,0.016743800006224774,27.099530599996797,27.487721599987708,[0.34833333333333333],[0.025833333333333333],[1],[0],[0],[1.4113772999990033],['target'],604336,001,2024-10-10_15h42.27.798,visual search,2024.1.5,None,2024-10-10 15h42.35.971291 +0530,
18,0,18,0,27.538357400000677,,27.49189849999675,10,27.538357400000677,27.538357400000677,0.03282460001355503,28.551531999997678,29.333275199998752,[-0.48],[-0.0016666666666666668],[1],[0],[0],[1.808955300002708],['target'],604336,001,2024-10-10_15h42.27.798,visual search,2024.1.5,None,2024-10-10 15h42.35.971291 +0530,
19,0,19,0,29.39106009999523,,29.336430600000313,10,29.39106009999523,29.39106009999523,0.03303570000571199,30.407355799994548,31.199396999989403,[-0.05583333333333333],[-0.44416666666666665],[1],[0],[0],[1.8302230999979656],['target'],604336,001,2024-10-10_15h42.27.798,visual search,2024.1.5,None,2024-10-10 15h42.35.971291 +0530,
20,0,20,0,31.26016289999825,,31.20273129999987,10,31.26016289999825,31.26016289999825,0.031328900004155,32.28966509999009,33.83587949999492,[0.4166666666666667],[-0.4058333333333333],[1],[0],[0],[2.6020655000029365],['target'],604336,001,2024-10-10_15h42.27.798,visual search,2024.1.5,None,2024-10-10 15h42.35.971291 +0530,
21,0,21,0,33.863861299993005,,33.83902869999292,5,33.863861299993005,33.863861299993005,0.01722660000086762,34.86633789999178,35.4194342999981,[0.1325],[-0.275],[1],[0],[0],[1.5631714000046486],['target'],604336,001,2024-10-10_15h42.27.798,visual search,2024.1.5,None,2024-10-10 15h42.35.971291 +0530,
22,0,22,0,35.451421999998274,,35.424022699997295,5,35.451421999998274,35.451421999998274,0.019418300013057888,,36.36782769999991,[0.14333333333333334],[-0.22583333333333333],[1],[0],[0],[0.9247547000122722],['target'],604336,001,2024-10-10_15h42.27.798,visual search,2024.1.5,None,2024-10-10 15h42.35.971291 +0530,
23,0,23,0,36.39634159998968,,36.37174170000071,5,36.39634159998968,36.39634159998968,0.017077700002118945,37.399330499989446,38.78440749998845,[0.4508333333333333],[0.43416666666666665],[1],[0],[0],[2.3960249000083422],['target'],604336,001,2024-10-10_15h42.27.798,visual search,2024.1.5,None,2024-10-10 15h42.35.971291 +0530,
24,0,24,0,38.835907499989844,,38.78777489998902,10,38.835907499989844,38.835907499989844,0.03282740000577178,39.84648819999711,40.85077249999449,[-0.029166666666666667],[0.11083333333333334],[1],[0],[0],[2.0304968999989796],['target'],604336,001,2024-10-10_15h42.27.798,visual search,2024.1.5,None,2024-10-10 15h42.35.971291 +0530,
25,0,25,0,40.90778569999384,,40.853877000001376,10,40.90778569999384,40.90778569999384,0.031272799998987466,41.91950969999016,42.6383688999922,[-0.44166666666666665],[0.12916666666666668],[1],[0],[0],[1.753458999999566],['target'],604336,001,2024-10-10_15h42.27.798,visual search,2024.1.5,None,2024-10-10 15h42.35.971291 +0530,
26,0,26,0,42.66969509999035,,42.64238179998938,5,42.66969509999035,42.66969509999035,0.018086500000208616,43.68377309999778,44.203467100000125,[-0.1825],[0.2658333333333333],[1],[0],[0],[1.5437288999964949],['target'],604336,001,2024-10-10_15h42.27.798,visual search,2024.1.5,None,2024-10-10 15h42.35.971291 +0530,
27,0,27,0,44.237060200001,,44.207551999992575,5,44.237060200001,44.237060200001,0.02142449999519158,45.24948980000045,45.98546669998905,[0.25416666666666665],[-0.16083333333333333],[1],[0],[0],[1.7564031000074465],['target'],604336,001,2024-10-10_15h42.27.798,visual search,2024.1.5,None,2024-10-10 15h42.35.971291 +0530,
28,0,28,0,46.01632029999746,,45.99007669999264,5,46.01632029999746,46.01632029999746,0.019040500003029592,47.01673249999294,47.135461199999554,[0.17583333333333334],[-0.03916666666666667],[1],[0],[0],[1.1263604999985546],['target'],604336,001,2024-10-10_15h42.27.798,visual search,2024.1.5,None,2024-10-10 15h42.35.971291 +0530,
29,0,29,0,47.188898299995344,,47.13961759999802,10,47.188898299995344,47.188898299995344,0.03450549999251962,48.199774299995624,48.41744639999524,[-0.17333333333333334],[0.2375],[1],[0],[0],[1.2435562000027858],['target'],604336,001,2024-10-10_15h42.27.798,visual search,2024.1.5,None,2024-10-10 15h42.35.971291 +0530,
30,0,30,0,48.46823839998979,,48.42048989998875,10,48.46823839998979,48.46823839998979,0.028785300004528835,49.482074799991096,49.72679390000121,[-0.0875],[0.23666666666666666],[1],[0],[0],[1.2776540000049863],['target'],604336,001,2024-10-10_15h42.27.798,visual search,2024.1.5,None,2024-10-10 15h42.35.971291 +0530,
31,0,31,0,49.78745540000091,,49.730251999993925,10,49.78745540000091,49.78745540000091,0.03135640000982676,50.809540699992795,54.538677499993355,[-0.37416666666666665],[-0.37833333333333335],[1],[0],[0],[4.7770465999929],['target'],604336,001,2024-10-10_15h42.27.798,visual search,2024.1.5,None,2024-10-10 15h42.35.971291 +0530,
32,0,32,0,54.56551909999689,,54.54167159998906,5,54.56551909999689,54.56551909999689,0.014682799999718554,55.56669539998984,55.98740379999799,[0.13666666666666666],[0.31333333333333335],[1],[0],[0],[1.4308375999971759],['target'],604336,001,2024-10-10_15h42.27.798,visual search,2024.1.5,None,2024-10-10 15h42.35.971291 +0530,
33,0,33,0,56.022446999995736,,55.99230639998859,5,56.022446999995736,56.022446999995736,0.0219202000007499,57.03365629998734,57.13617230000091,[-0.18],[0.32916666666666666],[1],[0],[0],[1.1219204000080936],['target'],604336,001,2024-10-10_15h42.27.798,visual search,2024.1.5,None,2024-10-10 15h42.35.971291 +0530,
34,0,34,0,57.18639769998845,,57.14070119999815,10,57.18639769998845,57.18639769998845,0.031786499996087514,58.19993989999057,59.13437439998961,[0.42583333333333334],[0.17916666666666667],[1],[0],[0],[1.9621629000030225],['target'],604336,001,2024-10-10_15h42.27.798,visual search,2024.1.5,None,2024-10-10 15h42.35.971291 +0530,
35,0,35,0,59.18817090000084,,59.13725309999427,10,59.18817090000084,59.18817090000084,0.030059199998504482,60.19661109999288,60.99111499999708,[-0.3125],[0.06666666666666667],[1],[0],[0],[1.8240249999944353],['target'],604336,001,2024-10-10_15h42.27.798,visual search,2024.1.5,None,2024-10-10 15h42.35.971291 +0530,
36,0,36,0,61.05996459999005,,60.99481959998957,10,61.05996459999005,61.05996459999005,0.039707100004306994,62.07616959999723,64.01015649999317,[0.2275],[0.24166666666666667],[1],[0],[0],[2.976412899995921],['target'],604336,001,2024-10-10_15h42.27.798,visual search,2024.1.5,None,2024-10-10 15h42.35.971291 +0530,
37,0,37,0,64.03907929999696,,64.01342029999068,5,64.03907929999696,64.03907929999696,0.017659399993135594,65.04984870000044,66.32010879999143,[-0.4766666666666667],[-0.33916666666666667],[1],[0],[0],[2.288758000009693],[],604336,001,2024-10-10_15h42.27.798,visual search,2024.1.5,None,2024-10-10 15h42.35.971291 +0530,
38,0,38,0,66.34985999998753,,66.32407779998903,5,66.34985999998753,66.34985999998753,0.018405499999062158,67.34998369999812,67.6862148999935,[-0.015833333333333335],[-0.2866666666666667],[1],[0],[0],[1.3438444999919739],['target'],604336,001,2024-10-10_15h42.27.798,visual search,2024.1.5,None,2024-10-10 15h42.35.971291 +0530,
39,0,39,0,67.71796929999255,,67.69126249999681,5,67.71796929999255,67.71796929999255,0.01931689999764785,68.73333779998939,70.23532119998708,[-0.45],[-0.08916666666666667],[1],[0],[0],[2.5252983999962453],['target'],604336,001,2024-10-10_15h42.27.798,visual search,2024.1.5,None,2024-10-10 15h42.35.971291 +0530,
40,0,40,0,70.26802129999851,,70.24034739998751,5,70.26802129999851,70.26802129999851,0.019524899995303713,71.2834157999896,71.83608899998944,[0.4691666666666667],[0.43666666666666665],[1],[0],[0],[1.5765908000030322],['target'],604336,001,2024-10-10_15h42.27.798,visual search,2024.1.5,None,2024-10-10 15h42.35.971291 +0530,
41,0,41,0,71.86631549999584,,71.84046419999504,5,71.86631549999584,71.86631549999584,0.018493800002033822,72.86782949999906,73.6192321999988,[-0.31],[-0.34833333333333333],[1],[0],[0],[1.7601798999967286],['target'],604336,001,2024-10-10_15h42.27.798,visual search,2024.1.5,None,2024-10-10 15h42.35.971291 +0530,
42,0,42,0,73.67183739999018,,73.62332199999946,10,73.67183739999018,73.67183739999018,0.03406470001209527,74.68365619999531,76.11836539999058,[0.44083333333333335],[0.055],[1],[0],[0],[2.4612652999931015],['target'],604336,001,2024-10-10_15h42.27.798,visual search,2024.1.5,None,2024-10-10 15h42.35.971291 +0530,
43,0,43,0,76.17228719999548,,76.12164339999435,10,76.17228719999548,76.17228719999548,0.029808799998136237,77.18976039999689,77.53470849999576,[0.43916666666666665],[-0.020833333333333332],[1],[0],[0],[1.3834848999977112],['target'],604336,001,2024-10-10_15h42.27.798,visual search,2024.1.5,None,2024-10-10 15h42.35.971291 +0530,
44,0,44,0,77.5955302999937,,77.53821289999178,10,77.5955302999937,77.5955302999937,0.03122490001260303,78.61665069998708,80.5488345999911,[-0.1625],[-0.2625],[1],[0],[0],[2.979521500004921],[],604336,001,2024-10-10_15h42.27.798,visual search,2024.1.5,None,2024-10-10 15h42.35.971291 +0530,
45,0,45,0,80.57514299999457,,80.55193329999747,5,80.57514299999457,80.57514299999457,0.015495500003453344,81.58360749999702,81.86967249998997,[-0.21333333333333335],[0.16416666666666666],[1],[0],[0],[1.3022866999963298],['target'],604336,001,2024-10-10_15h42.27.798,visual search,2024.1.5,None,2024-10-10 15h42.35.971291 +0530,
46,0,46,0,81.90106819999346,,81.87441629999375,5,81.90106819999346,81.90106819999346,0.018720899999607354,82.90027399999963,83.50194999999076,[-0.47583333333333333],[0.19833333333333333],[1],[0],[0],[1.6091622000094503],['target'],604336,001,2024-10-10_15h42.27.798,visual search,2024.1.5,None,2024-10-10 15h42.35.971291 +0530,
47,0,47,0,83.55440889998863,,83.50625249999575,10,83.55440889998863,83.55440889998863,0.03324330000032205,84.55908479999925,86.78615580000042,[0.14],[0.45166666666666666],[1],[0],[0],[3.246889400004875],['target'],604336,001,2024-10-10_15h42.27.798,visual search,2024.1.5,None,2024-10-10 15h42.35.971291 +0530,
48,0,48,0,86.8374485999957,,86.78937889999361,10,86.8374485999957,86.8374485999957,0.02814619999844581,87.85446339999908,88.51142699999036,[-0.19833333333333333],[0.11166666666666666],[1],[0],[0],[1.6943061000056332],['target'],604336,001,2024-10-10_15h42.27.798,visual search,2024.1.5,None,2024-10-10 15h42.35.971291 +0530,
49,0,49,0,88.57076159999997,,88.51497239999298,10,88.57076159999997,88.57076159999997,0.029013899998972192,89.59146679998958,90.0102676999959,[-0.28],[-0.17416666666666666],[1],[0],[0],[1.4665215999993961],['target'],604336,001,2024-10-10_15h42.27.798,visual search,2024.1.5,None,2024-10-10 15h42.35.971291 +0530,
50,0,50,0,90.0453695999895,,90.01487619998807,5,90.0453695999895,90.0453695999895,0.021228900004643947,91.05132199999935,91.8536208000005,[0.15833333333333333],[0.415],[1],[0],[0],[1.8175000000046566],['target'],604336,001,2024-10-10_15h42.27.798,visual search,2024.1.5,None,2024-10-10 15h42.35.971291 +0530,
51,0,51,0,91.88362219999544,,91.85854399998789,5,91.88362219999544,91.88362219999544,0.018133800011128187,92.88412199998857,93.40283679999993,[-0.013333333333333334],[0.39],[1],[0],[0],[1.5265025999979116],['target'],604336,001,2024-10-10_15h42.27.798,visual search,2024.1.5,None,2024-10-10 15h42.35.971291 +0530,
52,0,52,0,93.43460290000075,,93.40818600000057,5,93.43460290000075,93.43460290000075,0.018815499992342666,94.43390589999035,94.70396169999731,[0.47333333333333333],[0.2808333333333333],[1],[0],[0],[1.2771057000063593],['target'],604336,001,2024-10-10_15h42.27.798,visual search,2024.1.5,None,2024-10-10 15h42.35.971291 +0530,
53,0,53,0,94.75626809999812,,94.70877389999805,10,94.75626809999812,94.75626809999812,0.03266169999551494,95.76724819999072,97.65209009998944,[-0.41583333333333333],[0.0825],[1],[0],[0],[2.9111473000084516],[],604336,001,2024-10-10_15h42.27.798,visual search,2024.1.5,None,2024-10-10 15h42.35.971291 +0530,
54,0,54,0,97.68690209998749,,97.66007479999098,5,97.68690209998749,97.68690209998749,0.021177800008445047,98.700874999995,99.30468960000144,[0.08916666666666667],[-0.37666666666666665],[1],[0],[0],[1.6258539000118617],[],604336,001,2024-10-10_15h42.27.798,visual search,2024.1.5,None,2024-10-10 15h42.35.971291 +0530,
55,0,55,0,99.33720779999567,,99.30865500000073,5,99.33720779999567,99.33720779999567,0.019926199995097704,100.35084239998832,100.78843979998783,[-0.025833333333333333],[0.06166666666666667],[1],[0],[0],[1.4595111000089673],['target'],604336,001,2024-10-10_15h42.27.798,visual search,2024.1.5,None,2024-10-10 15h42.35.971291 +0530,
56,0,56,0,100.84237199999916,,100.79320559999906,10,100.84237199999916,100.84237199999916,0.03379539999878034,101.85089829999197,102.31825519999256,[0.2966666666666667],[0.21833333333333332],[1],[0],[0],[1.4917494999972405],['target'],604336,001,2024-10-10_15h42.27.798,visual search,2024.1.5,None,2024-10-10 15h42.35.971291 +0530,
57,0,57,0,102.34567559999414,,102.3213684999937,5,102.34567559999414,102.34567559999414,0.01669479999691248,103.35098529999959,103.9538109999994,[-0.09833333333333333],[-0.24166666666666667],[1],[0],[0],[1.6155208999989554],['target'],604336,001,2024-10-10_15h42.27.798,visual search,2024.1.5,None,2024-10-10 15h42.35.971291 +0530,
58,0,58,0,104.00847729999805,,103.95885999999882,10,104.00847729999805,104.00847729999805,0.03492829999595415,105.0217619999894,106.58532749999722,[-0.21083333333333334],[0.2025],[1],[0],[0],[2.5921112000069115],[],604336,001,2024-10-10_15h42.27.798,visual search,2024.1.5,None,2024-10-10 15h42.35.971291 +0530,
59,0,59,0,106.63904470000125,,106.58840789999522,10,106.63904470000125,106.63904470000125,0.0316298999969149,107.6664524999942,108.52132200000051,[0.33166666666666667],[-0.2625],[1],[0],[0],[1.9014879999886034],['target'],604336,001,2024-10-10_15h42.27.798,visual search,2024.1.5,None,2024-10-10 15h42.35.971291 +0530,
60,0,60,0,108.55025729999761,,108.52452690000064,5,108.55025729999761,108.55025729999761,0.017496499989647418,109.55087979999371,109.80399999998917,[0.31166666666666665],[-0.19666666666666666],[1],[0],[0],[1.2621440000075381],['target'],604336,001,2024-10-10_15h42.27.798,visual search,2024.1.5,None,2024-10-10 15h42.35.971291 +0530,
61,0,61,0,109.83384300000034,,109.80819129999145,5,109.83384300000034,109.83384300000034,0.018053699997835793,110.83428609999828,111.03618819999974,[0.4266666666666667],[-0.16],[1],[0],[0],[1.2100445999967633],['target'],604336,001,2024-10-10_15h42.27.798,visual search,2024.1.5,None,2024-10-10 15h42.35.971291 +0530,
62,0,62,0,111.08873089999543,,111.04097759998695,10,111.08873089999543,111.08873089999543,0.033046299999114126,112.08920360000047,112.51890309998998,[-0.42],[0.15583333333333332],[1],[0],[0],[1.4454226000088966],['target'],604336,001,2024-10-10_15h42.27.798,visual search,2024.1.5,None,2024-10-10 15h42.35.971291 +0530,
63,0,63,0,112.57584710000083,,112.52217949999613,10,112.57584710000083,112.57584710000083,0.03175059999921359,113.57953899999848,113.72985139999946,[-0.405],[0.08833333333333333],[1],[0],[0],[1.1761477999971248],['target'],604336,001,2024-10-10_15h42.27.798,visual search,2024.1.5,None,2024-10-10 15h42.35.971291 +0530,
64,0,64,0,113.75694959999237,,113.73298899999645,5,113.75694959999237,113.75694959999237,0.01591780000308063,114.76845930000127,115.42042719999154,[0.32],[-0.16416666666666666],[1],[0],[0],[1.6715841999975964],['target'],604336,001,2024-10-10_15h42.27.798,visual search,2024.1.5,None,2024-10-10 15h42.35.971291 +0530,
65,0,65,0,115.45071729998745,,115.42514539998956,5,115.45071729998745,115.45071729998745,0.018314200002350844,116.4512595999986,116.8865330999979,[0.4266666666666667],[-0.26],[1],[0],[0],[1.44343270000536],['target'],604336,001,2024-10-10_15h42.27.798,visual search,2024.1.5,None,2024-10-10 15h42.35.971291 +0530,
66,0,66,0,116.94001679999928,,116.89087409999047,10,116.94001679999928,116.94001679999928,0.034277500002644956,117.9596021999896,118.55188609998731,[0.39166666666666666],[0.26166666666666666],[1],[0],[0],[1.6271989999950165],['target'],604336,001,2024-10-10_15h42.27.798,visual search,2024.1.5,None,2024-10-10 15h42.35.971291 +0530,
67,0,67,0,118.61115119999158,,118.55493439998827,10,118.61115119999158,118.61115119999158,0.03574469999875873,119.62412739999127,120.71050729999843,[-0.024166666666666666],[-0.42],[1],[0],[0],[2.1198396000108914],['target'],604336,001,2024-10-10_15h42.27.798,visual search,2024.1.5,None,2024-10-10 15h42.35.971291 +0530,
68,0,68,0,120.74134199999389,,120.71353029999591,5,120.74134199999389,120.74134199999389,0.018314300003112294,121.7514463999978,122.03778220000095,[-0.22833333333333333],[0.37833333333333335],[1],[0],[0],[1.305625399996643],[],604336,001,2024-10-10_15h42.27.798,visual search,2024.1.5,None,2024-10-10 15h42.35.971291 +0530,
69,0,69,0,122.08859729999676,,122.04173389999778,10,122.08859729999676,122.08859729999676,0.03305050000199117,123.10130039999785,124.17240719999245,[-0.4691666666666667],[-0.3925],[1],[0],[0],[2.0978714999946533],['target'],604336,001,2024-10-10_15h42.27.798,visual search,2024.1.5,None,2024-10-10 15h42.35.971291 +0530,
70,0,70,0,124.20290730000124,,124.17533459998958,5,124.20290730000124,124.20290730000124,0.0199441000004299,125.20131689999835,125.62039859998913,[-0.425],[-0.30583333333333335],[1],[0],[0],[1.4251151999924332],['target'],604336,001,2024-10-10_15h42.27.798,visual search,2024.1.5,None,2024-10-10 15h42.35.971291 +0530,
71,0,71,0,125.67381249999744,,125.6248360999889,10,125.67381249999744,125.67381249999744,0.03363439999520779,126.68527419999009,127.71931819999008,[-0.16583333333333333],[-0.075],[1],[0],[0],[2.061239200003911],['target'],604336,001,2024-10-10_15h42.27.798,visual search,2024.1.5,None,2024-10-10 15h42.35.971291 +0530,
72,0,72,0,127.77442819999123,,127.72290639999846,10,127.77442819999123,127.77442819999123,0.030514099998981692,128.7931671999977,131.77052689999982,[-0.023333333333333334],[0.4816666666666667],[1],[0],[0],[4.017345000000205],[],604336,001,2024-10-10_15h42.27.798,visual search,2024.1.5,None,2024-10-10 15h42.35.971291 +0530,
73,0,73,0,131.83325279998826,,131.77368939999724,10,131.83325279998826,131.83325279998826,0.03265940000710543,132.85804890000145,134.1077435999905,[0.31916666666666665],[0.36583333333333334],[1],[0],[0],[2.3014279999915743],['target'],604336,001,2024-10-10_15h42.27.798,visual search,2024.1.5,None,2024-10-10 15h42.35.971291 +0530,
74,0,74,0,134.17500079999445,,134.11064279999118,10,134.17500079999445,134.17500079999445,0.02893960000074003,135.19290059999912,137.1112684999971,[-0.2633333333333333],[0.37083333333333335],[1],[0],[0],[2.9718185999954585],['target'],604336,001,2024-10-10_15h42.27.798,visual search,2024.1.5,None,2024-10-10 15h42.35.971291 +0530,
75,0,75,0,137.1835071999958,,137.114560099988,10,137.1835071999958,137.1835071999958,0.03164590000233147,138.23170099999697,138.79466829999,[0.26666666666666666],[0.48],[1],[0],[0],[1.648559999986901],['target'],604336,001,2024-10-10_15h42.27.798,visual search,2024.1.5,None,2024-10-10 15h42.35.971291 +0530,
76,0,76,0,138.89470879999863,,138.80003669999132,10,138.89470879999863,138.89470879999863,0.04400409999652766,139.92375549999997,140.65179009998974,[-0.20916666666666667],[0.205],[1],[0],[0],[1.8082260999944992],['target'],604336,001,2024-10-10_15h42.27.798,visual search,2024.1.5,None,2024-10-10 15h42.35.971291 +0530,
77,0,77,0,140.73392539999622,,140.6548693999939,10,140.73392539999622,140.73392539999622,0.03134159999899566,141.82660929999838,142.37827409998863,[0.2658333333333333],[0.45416666666666666],[1],[0],[0],[1.6922816000005696],['target'],604336,001,2024-10-10_15h42.27.798,visual search,2024.1.5,None,2024-10-10 15h42.35.971291 +0530,
78,0,78,0,142.46999679999135,,142.38165659998776,10,142.46999679999135,142.46999679999135,0.032867200003238395,143.57066620000114,144.61289969999052,[-0.16666666666666666],[-0.06833333333333333],[1],[0],[0],[2.198393999991822],['target'],604336,001,2024-10-10_15h42.27.798,visual search,2024.1.5,None,2024-10-10 15h42.35.971291 +0530,
79,0,79,0,144.7388850999996,,144.61792259999493,10,144.7388850999996,144.7388850999996,0.04873980001138989,145.8225201999885,145.94342219999817,[-0.4766666666666667],[0.16083333333333333],[1],[0],[0],[1.2773620999942068],['target'],604336,001,2024-10-10_15h42.27.798,visual search,2024.1.5,None,2024-10-10 15h42.35.971291 +0530,
80,0,80,0,146.04391239999677,,145.9468734999973,10,146.04391239999677,146.04391239999677,0.03204570000525564,147.1064505999966,147.85979569998744,[-0.41333333333333333],[0.39166666666666666],[1],[0],[0],[1.8810632999957306],['target'],604336,001,2024-10-10_15h42.27.798,visual search,2024.1.5,None,2024-10-10 15h42.35.971291 +0530,
81,0,81,0,147.97244359999604,,147.86337779999303,10,147.97244359999604,147.97244359999604,0.03244300000369549,149.02850000000035,149.42642829999386,[-0.21333333333333335],[0.21416666666666667],[1],[0],[0],[1.530880399994203],['target'],604336,001,2024-10-10_15h42.27.798,visual search,2024.1.5,None,2024-10-10 15h42.35.971291 +0530,
82,0,82,0,149.45627460000105,,149.43002439998963,5,149.45627460000105,149.45627460000105,0.016665500006638467,150.46825349998835,151.14083499999833,[-0.049166666666666664],[0.0016666666666666668],[1],[0],[0],[1.694253800000297],['target'],604336,001,2024-10-10_15h42.27.798,visual search,2024.1.5,None,2024-10-10 15h42.35.971291 +0530,
83,0,83,0,151.1717260000005,,151.14504499999748,5,151.1717260000005,151.1717260000005,0.018389400007436052,152.18553229999088,152.27122119998967,[-0.13416666666666666],[0.18583333333333332],[1],[0],[0],[1.1078546999924583],['target'],604336,001,2024-10-10_15h42.27.798,visual search,2024.1.5,None,2024-10-10 15h42.35.971291 +0530,
84,0,84,0,152.30327069999475,,152.27605349999794,5,152.30327069999475,152.30327069999475,0.01823050000530202,153.31851139999344,154.77188359999855,[0.3491666666666667],[0.4558333333333333],[1],[0],[0],[2.4776166999945417],['target'],604336,001,2024-10-10_15h42.27.798,visual search,2024.1.5,None,2024-10-10 15h42.35.971291 +0530,
85,0,85,0,154.8286015999911,,154.77648889999546,10,154.8286015999911,154.8286015999911,0.03834610000194516,155.8406546999904,156.24093119999452,[0.24916666666666668],[0.3075],[1],[0],[0],[1.4264765999978408],['target'],604336,001,2024-10-10_15h42.27.798,visual search,2024.1.5,None,2024-10-10 15h42.35.971291 +0530,
86,0,86,0,156.27089759999944,,156.24413300000015,5,156.27089759999944,156.27089759999944,0.017600999999558553,157.28628489999392,158.2210253999947,[0.20166666666666666],[0.3225],[1],[0],[0],[1.9593680999969365],['target'],604336,001,2024-10-10_15h42.27.798,visual search,2024.1.5,None,2024-10-10 15h42.35.971291 +0530,
87,0,87,0,158.2793481999979,,158.22529689999647,10,158.2793481999979,158.2793481999979,0.036226500000339,159.28539429999364,161.10622439999133,[0.01],[-0.44166666666666665],[1],[0],[0],[2.8451387000095565],['target'],604336,001,2024-10-10_15h42.27.798,visual search,2024.1.5,None,2024-10-10 15h42.35.971291 +0530,
88,0,88,0,161.1338970999932,,161.10989049999625,5,161.1338970999932,161.1338970999932,0.016474099989864044,162.13517689998844,162.7876552999951,[0.18166666666666667],[0.41833333333333333],[1],[0],[0],[1.6619791999983136],['target'],604336,001,2024-10-10_15h42.27.798,visual search,2024.1.5,None,2024-10-10 15h42.35.971291 +0530,
89,0,89,0,162.82080499999574,,162.79174289999355,5,162.82080499999574,162.82080499999574,0.01922460000787396,163.83522229999653,164.22170499998902,[0.3625],[0.11],[1],[0],[0],[1.4109895000001416],['target'],604336,001,2024-10-10_15h42.27.798,visual search,2024.1.5,None,2024-10-10 15h42.35.971291 +0530,
90,0,90,0,164.25450529999216,,164.22683059998963,5,164.25450529999216,164.25450529999216,0.019516100001055747,165.2687345000013,166.13756419999117,[0.32416666666666666],[-0.31333333333333335],[1],[0],[0],[1.8916024999925867],[],604336,001,2024-10-10_15h42.27.798,visual search,2024.1.5,None,2024-10-10 15h42.35.971291 +0530,
91,0,91,0,166.17060479999054,,166.14202569999907,5,166.17060479999054,166.17060479999054,0.01851110000279732,167.18536809999205,167.55483219999587,[-0.4575],[-0.145],[1],[0],[0],[1.394560199987609],['target'],604336,001,2024-10-10_15h42.27.798,visual search,2024.1.5,None,2024-10-10 15h42.35.971291 +0530,
92,0,92,0,167.61155529999814,,167.5601086999959,10,167.61155529999814,167.61155529999814,0.03580939999665134,168.61168419999012,169.52336369999102,[0.21083333333333334],[-0.23666666666666666],[1],[0],[0],[1.9281575999921188],[],604336,001,2024-10-10_15h42.27.798,visual search,2024.1.5,None,2024-10-10 15h42.35.971291 +0530,
93,0,93,0,169.58638259999861,,169.52668619999895,10,169.58638259999861,169.58638259999861,0.0376955999963684,170.60010159999365,171.9325087999896,[0.47833333333333333],[-0.2966666666666667],[1],[0],[0],[2.3684544999996433],['target'],604336,001,2024-10-10_15h42.27.798,visual search,2024.1.5,None,2024-10-10 15h42.35.971291 +0530,
94,0,94,0,171.9604907999892,,171.9360444999911,5,171.9604907999892,171.9604907999892,0.01629490000777878,172.96893229999114,173.60498169998755,[-0.21333333333333335],[-0.4675],[1],[0],[0],[1.6527211999928113],['target'],604336,001,2024-10-10_15h42.27.798,visual search,2024.1.5,None,2024-10-10 15h42.35.971291 +0530,
95,0,95,0,173.640711,,173.61058129998855,5,173.640711,173.640711,0.021395400006440468,174.65238729999692,174.754099999991,[-0.24083333333333334],[-0.015],[1],[0],[0],[1.1228294000029564],['target'],604336,001,2024-10-10_15h42.27.798,visual search,2024.1.5,None,2024-10-10 15h42.35.971291 +0530,
96,0,96,0,174.82116819999646,,174.7597805999976,10,174.82116819999646,174.82116819999646,0.04158910000114702,175.83575819998805,176.15380239998922,[-0.3283333333333333],[-0.375],[1],[0],[0],[1.3531817000039155],['target'],604336,001,2024-10-10_15h42.27.798,visual search,2024.1.5,None,2024-10-10 15h42.35.971291 +0530,
97,0,97,0,176.18714529999124,,176.15708219999215,5,176.18714529999124,176.18714529999124,0.016804099999717437,177.18644839999615,177.3214159999916,[-0.23083333333333333],[0.085],[1],[0],[0],[1.1474981000064872],['target'],604336,001,2024-10-10_15h42.27.798,visual search,2024.1.5,None,2024-10-10 15h42.35.971291 +0530,
98,0,98,0,177.35392519999004,,177.32649199999287,5,177.35392519999004,177.35392519999004,0.019142799996188842,178.36898039998778,178.83779859999777,[0.135],[-0.37],[1],[0],[0],[1.4927939000044717],['target'],604336,001,2024-10-10_15h42.27.798,visual search,2024.1.5,None,2024-10-10 15h42.35.971291 +0530,
99,0,99,0,178.86741909998818,,178.8419861000002,5,178.86741909998818,178.86741909998818,0.017338199992082082,179.86936289998994,180.67104219998873,[-0.23583333333333334],[0.3875],[1],[0],[0],[1.8119175000028918],['target'],604336,001,2024-10-10_15h42.27.798,visual search,2024.1.5,None,2024-10-10 15h42.35.971291 +0530,
100,0,100,0,180.72719379999035,,180.67615689999366,10,180.72719379999035,180.72719379999035,0.03379719999793451,181.74513899999147,182.62026239999977,[-0.2775],[-0.11916666666666667],[1],[0],[0],[1.9109078999899793],['target'],604336,001,2024-10-10_15h42.27.798,visual search,2024.1.5,None,2024-10-10 15h42.35.971291 +0530,
101,0,101,0,182.64990899999975,,182.62348729999212,5,182.64990899999975,182.64990899999975,0.017803900002036244,183.65228919999208,183.70420059999742,[-0.25333333333333335],[0.12083333333333333],[1],[0],[0],[1.0629824999923585],['target'],604336,001,2024-10-10_15h42.27.798,visual search,2024.1.5,None,2024-10-10 15h42.35.971291 +0530,
102,0,102,0,183.73475849999522,,183.70889069999976,5,183.73475849999522,183.73475849999522,0.018378099994151853,184.73615679999057,185.3886394000001,[0.0575],[-0.115],[1],[0],[0],[1.6614234000007855],['target'],604336,001,2024-10-10_15h42.27.798,visual search,2024.1.5,None,2024-10-10 15h42.35.971291 +0530,
103,0,103,0,185.44322829999146,,185.39350379999087,10,185.44322829999146,185.44322829999146,0.03354959998978302,186.45271800000046,186.77050079999026,[-0.35],[0.26],[1],[0],[0],[1.3439948000013828],['target'],604336,001,2024-10-10_15h42.27.798,visual search,2024.1.5,None,2024-10-10 15h42.35.971291 +0530,
104,0,104,0,186.82641519999015,,186.77357140000095,10,186.82641519999015,186.82641519999015,0.03105679999862332,187.83663059999526,188.04310659998737,[-0.2708333333333333],[0.46416666666666667],[1],[0],[0],[1.2387737999961246],['target'],604336,001,2024-10-10_15h42.27.798,visual search,2024.1.5,None,2024-10-10 15h42.35.971291 +0530,
105,0,105,0,188.10547699999006,,188.0461457999918,10,188.10547699999006,188.10547699999006,0.030561999999918044,189.13737499999115,189.28764539999247,[0.06333333333333334],[0.23833333333333334],[1],[0],[0],[1.2111334999935934],['target'],604336,001,2024-10-10_15h42.27.798,visual search,2024.1.5,None,2024-10-10 15h42.35.971291 +0530,
106,0,106,0,189.31587890000083,,189.29099499998847,5,189.31587890000083,189.31587890000083,0.016778599994722754,190.31921149999835,191.45655409999017,[-0.47333333333333333],[0.2808333333333333],[1],[0],[0],[2.148877999992692],['target'],604336,001,2024-10-10_15h42.27.798,visual search,2024.1.5,None,2024-10-10 15h42.35.971291 +0530,
107,0,107,0,191.51827289999346,,191.4609524999978,10,191.51827289999346,191.51827289999346,0.040390199996181764,192.53093359999184,192.87032139999792,[0.18916666666666668],[-0.37916666666666665],[1],[0],[0],[1.369531599993934],['target'],604336,001,2024-10-10_15h42.27.798,visual search,2024.1.5,None,2024-10-10 15h42.35.971291 +0530,
108,0,108,0,192.89969649999694,,192.87352819999796,5,192.89969649999694,192.89969649999694,0.016812800007755868,193.9024414000014,194.6051005999907,[-0.19666666666666666],[0.075],[1],[0],[0],[1.7148500999901444],['target'],604336,001,2024-10-10_15h42.27.798,visual search,2024.1.5,None,2024-10-10 15h42.35.971291 +0530,
109,0,109,0,194.63810509999166,,194.60973949999607,5,194.63810509999166,194.63810509999166,0.01850539998849854,,195.58777919999557,[-0.07333333333333333],[-0.10666666666666667],[1],[0],[0],[0.9600582999992184],['target'],604336,001,2024-10-10_15h42.27.798,visual search,2024.1.5,None,2024-10-10 15h42.35.971291 +0530,
110,0,110,0,195.6155832999939,,195.59093149998807,5,195.6155832999939,195.6155832999939,0.01635560000431724,196.6196540999954,196.68815899999754,[-0.31],[-0.13],[1],[0],[0],[1.080984799991711],['target'],604336,001,2024-10-10_15h42.27.798,visual search,2024.1.5,None,2024-10-10 15h42.35.971291 +0530,
111,0,111,0,196.7178789999889,,196.69212309998693,5,196.7178789999889,196.7178789999889,0.017263500005356036,197.72042499999225,199.18891739999526,[0.11],[0.013333333333333334],[1],[0],[0],[2.4795544000080554],[],604336,001,2024-10-10_15h42.27.798,visual search,2024.1.5,None,2024-10-10 15h42.35.971291 +0530,
112,0,112,0,199.24306429999706,,199.1930859999993,10,199.24306429999706,199.24306429999706,0.03358079999452457,,199.90462169999955,[0.11],[0.013333333333333334],[1],[0],[0],[0.6784018999896944],[],604336,001,2024-10-10_15h42.27.798,visual search,2024.1.5,None,2024-10-10 15h42.35.971291 +0530,
113,0,113,0,199.932767899998,,199.90765959999408,5,199.932767899998,199.932767899998,0.017016399986459874,200.93681819998892,201.95442579999508,[0.4658333333333333],[-0.48083333333333333],[1],[0],[0],[2.029982799998834],['target'],604336,001,2024-10-10_15h42.27.798,visual search,2024.1.5,None,2024-10-10 15h42.35.971291 +0530,
114,0,114,0,201.98332339999615,,201.95770579999953,5,201.98332339999615,201.98332339999615,0.018310800005565397,202.9865404000011,203.25550859999203,[0.34],[-0.18666666666666668],[1],[0],[0],[1.2794397999969078],['target'],604336,001,2024-10-10_15h42.27.798,visual search,2024.1.5,None,2024-10-10 15h42.35.971291 +0530,
115,0,115,0,203.31702449999284,,203.26040210000065,10,203.31702449999284,203.31702449999284,0.033288000005995855,204.3195951999951,204.3212741999887,[0.025833333333333333],[-0.025],[1],[0],[0],[1.0280362000048626],['target'],604336,001,2024-10-10_15h42.27.798,visual search,2024.1.5,None,2024-10-10 15h42.35.971291 +0530,
116,0,116,0,204.3548596999899,,204.3263169999991,5,204.3548596999899,204.3548596999899,0.018551499990280718,205.36955759998818,205.7558180999913,[0.325],[0.165],[1],[0],[0],[1.410983199995826],['target'],604336,001,2024-10-10_15h42.27.798,visual search,2024.1.5,None,2024-10-10 15h42.35.971291 +0530,
117,0,117,0,205.7932715999923,,205.7605099999928,5,205.7932715999923,205.7932715999923,0.024871100002201274,206.8028966999991,206.85476869999547,[0.2375],[-0.010833333333333334],[1],[0],[0],[1.0696785999898566],['target'],604336,001,2024-10-10_15h42.27.798,visual search,2024.1.5,None,2024-10-10 15h42.35.971291 +0530,
118,0,118,0,206.88535359999514,,206.85959969999385,5,206.88535359999514,206.88535359999514,0.018381999994744547,207.88623019999068,207.93817069999932,[0.32166666666666666],[-0.105],[1],[0],[0],[1.0605938999942737],['target'],604336,001,2024-10-10_15h42.27.798,visual search,2024.1.5,None,2024-10-10 15h42.35.971291 +0530,
119,0,119,0,207.99002069998824,,207.94238719998975,10,207.99002069998824,207.99002069998824,0.0325379999994766,209.00063029999728,210.0875684999919,[0.0675],[-0.4791666666666667],[1],[0],[0],[2.1130181000044104],['target'],604336,001,2024-10-10_15h42.27.798,visual search,2024.1.5,None,2024-10-10 15h42.35.971291 +0530,
120,0,120,0,210.14215509999485,,210.09076269999787,10,210.14215509999485,210.14215509999485,0.03117829999246169,211.15937969999504,212.36557119998906,[0.35833333333333334],[-0.4775],[1],[0],[0],[2.2438600000023143],['target'],604336,001,2024-10-10_15h42.27.798,visual search,2024.1.5,None,2024-10-10 15h42.35.971291 +0530,
121,0,121,0,212.42591689999972,,212.36926359999052,10,212.42591689999972,212.42591689999972,0.03079579999030102,213.45149729998957,216.57083839998813,[0.465],[-0.07],[1],[0],[0],[4.1709945000038715],[],604336,001,2024-10-10_15h42.27.798,visual search,2024.1.5,None,2024-10-10 15h42.35.971291 +0530,
122,0,122,0,216.63759819998813,,216.57396989999688,10,216.63759819998813,216.63759819998813,0.0314823999942746,217.66566949999833,218.13002050000068,[-0.11833333333333333],[0.08916666666666667],[1],[0],[0],[1.5248429000057513],[],604336,001,2024-10-10_15h42.27.798,visual search,2024.1.5,None,2024-10-10 15h42.35.971291 +0530,
123,0,123,0,218.2020654999942,,218.1332151999959,10,218.2020654999942,218.2020654999942,0.03188530000625178,,219.1815099999949,[-0.15583333333333332],[0.16166666666666665],[1],[0],[0],[1.0165502000018023],['target'],604336,001,2024-10-10_15h42.27.798,visual search,2024.1.5,None,2024-10-10 15h42.35.971291 +0530,
124,0,124,0,219.35322900000028,,219.18511339998804,10,219.35322900000028,219.35322900000028,0.12577199999941513,220.41561179999553,220.61350639999728,[-0.2875],[0.006666666666666667],[1],[0],[0],[1.3032645000057528],[],604336,001,2024-10-10_15h42.27.798,visual search,2024.1.5,None,2024-10-10 15h42.35.971291 +0530,
125,0,125,0,220.6409711999877,,220.61698769999202,5,220.6409711999877,220.6409711999877,0.01599970000097528,221.65372719999868,222.47390169999562,[-0.4275],[-0.36],[1],[0],[0],[1.8409383000107482],['target'],604336,001,2024-10-10_15h42.27.798,visual search,2024.1.5,None,2024-10-10 15h42.35.971291 +0530,
126,0,126,0,222.50537469999108,,222.47894659999292,5,222.50537469999108,222.50537469999108,0.01851429999805987,223.52025609998964,223.65631899998698,[-0.4125],[0.058333333333333334],[1],[0],[0],[1.1586861999967368],[],604336,001,2024-10-10_15h42.27.798,visual search,2024.1.5,None,2024-10-10 15h42.35.971291 +0530,
127,0,127,0,223.6883541999996,,223.6613839999918,5,223.6883541999996,223.6883541999996,0.019384199986234307,,224.52187889999186,[-0.2625],[-0.10833333333333334],[1],[0],[0],[0.8414130000019213],['target'],604336,001,2024-10-10_15h42.27.798,visual search,2024.1.5,None,2024-10-10 15h42.35.971291 +0530,
128,0,128,0,224.55115499999374,,224.525993999996,5,224.55115499999374,224.55115499999374,0.018449299997882918,225.5536621999927,225.82343979999132,[-0.08583333333333333],[0.14583333333333334],[1],[0],[0],[1.278944199992111],[],604336,001,2024-10-10_15h42.27.798,visual search,2024.1.5,None,2024-10-10 15h42.35.971291 +0530,
129,0,129,0,225.85812749998877,,225.82794099999592,5,225.85812749998877,225.85812749998877,0.02164910000283271,226.87069909999263,226.90683529998932,[0.2425],[-0.06],[1],[0],[0],[1.0572664000064833],['target'],604336,001,2024-10-10_15h42.27.798,visual search,2024.1.5,None,2024-10-10 15h42.35.971291 +0530,
130,0,130,0,226.93943919999583,,226.9111974999978,5,226.93943919999583,226.93943919999583,0.02006749999418389,227.95428819999506,228.25693289999617,[-0.0625],[-0.4825],[1],[0],[0],[1.3256549999932759],['target'],604336,001,2024-10-10_15h42.27.798,visual search,2024.1.5,None,2024-10-10 15h42.35.971291 +0530,
131,0,131,0,228.30806630000006,,228.26092659999267,10,228.30806630000006,228.30806630000006,0.03272889999789186,229.30771009999444,230.87138539999432,[-0.19166666666666668],[0.36],[1],[0],[0],[2.578120099991793],['target'],604336,001,2024-10-10_15h42.27.798,visual search,2024.1.5,None,2024-10-10 15h42.35.971291 +0530,
132,0,132,0,230.8985765999969,,230.87452179999673,5,230.8985765999969,230.8985765999969,0.016545599995879456,231.9040851999889,232.22380509998766,[0.085],[0.42333333333333334],[1],[0],[0],[1.3319092000019737],['target'],604336,001,2024-10-10_15h42.27.798,visual search,2024.1.5,None,2024-10-10 15h42.35.971291 +0530,
133,0,133,0,232.25974529999075,,232.23068379999313,5,232.25974529999075,232.25974529999075,0.020634300002711825,233.2706707999896,233.90576009999495,[-0.09916666666666667],[-0.30333333333333334],[1],[0],[0],[1.6546744999941438],['target'],604336,001,2024-10-10_15h42.27.798,visual search,2024.1.5,None,2024-10-10 15h42.35.971291 +0530,
134,0,134,0,233.95888549998926,,233.91078589999233,10,233.95888549998926,233.95888549998926,0.033477599994512275,234.97309369999857,235.52142019999155,[-0.42083333333333334],[0.39666666666666667],[1],[0],[0],[1.5777177999989362],['target'],604336,001,2024-10-10_15h42.27.798,visual search,2024.1.5,None,2024-10-10 15h42.35.971291 +0530,
135,0,135,0,235.5497491999995,,235.52455059999193,5,235.5497491999995,235.5497491999995,0.017592999996850267,236.55359239999962,237.6896882000001,[0.32166666666666666],[-0.35583333333333333],[1],[0],[0],[2.147508800000651],['target'],604336,001,2024-10-10_15h42.27.798,visual search,2024.1.5,None,2024-10-10 15h42.35.971291 +0530,
136,0,136,0,237.7447877999948,,237.6950383999938,10,237.7447877999948,237.7447877999948,0.03379539999878034,238.74732529999164,239.80457659999956,[-0.010833333333333334],[0.5],[1],[0],[0],[2.0763928999949712],['target'],604336,001,2024-10-10_15h42.27.798,visual search,2024.1.5,None,2024-10-10 15h42.35.971291 +0530,
137,0,137,0,239.86469750000106,,239.8080418999889,10,239.86469750000106,239.86469750000106,0.03227269998751581,240.88105440000072,241.20040359999985,[0.17833333333333334],[-0.08],[1],[0],[0],[1.3606077000004007],[],604336,001,2024-10-10_15h42.27.798,visual search,2024.1.5,None,2024-10-10 15h42.35.971291 +0530,
138,0,138,0,241.2296132999909,,241.2042278000008,5,241.2296132999909,241.2296132999909,0.01637299999129027,242.23700969999481,242.52305079999496,[0.5083333333333333],[-0.09166666666666666],[1],[0],[0],[1.3024347000027774],['target'],604336,001,2024-10-10_15h42.27.798,visual search,2024.1.5,None,2024-10-10 15h42.35.971291 +0530,
139,0,139,0,242.55751269999018,,242.5276950999978,5,242.55751269999018,242.55751269999018,0.01925650000339374,243.57033129999763,244.38921019999543,[-0.47333333333333333],[0.3775],[1],[0],[0],[1.8424827999988338],[],604336,001,2024-10-10_15h42.27.798,visual search,2024.1.5,None,2024-10-10 15h42.35.971291 +0530,
140,0,140,0,244.42351639999833,,244.39471339999,5,244.42351639999833,244.42351639999833,0.018173699994804338,,245.3392393999966,[-0.33666666666666667],[0.16333333333333333],[1],[0],[0],[0.9265875999990385],['target'],604336,001,2024-10-10_15h42.27.798,visual search,2024.1.5,None,2024-10-10 15h42.35.971291 +0530,
141,0,141,0,245.37137639999855,,245.34449429999222,5,245.37137639999855,245.37137639999855,0.019044400003622286,246.3705532999884,247.15713799999503,[-0.23583333333333334],[-0.4866666666666667],[1],[0],[0],[1.7939003999927081],[],604336,001,2024-10-10_15h42.27.798,visual search,2024.1.5,None,2024-10-10 15h42.35.971291 +0530,
142,0,142,0,247.19012629998906,,247.16234229999827,5,247.19012629998906,247.19012629998906,0.01860070000111591,248.20385199999146,248.855610300001,[0.49083333333333334],[0.39166666666666666],[1],[0],[0],[1.6750593000033405],[],604336,001,2024-10-10_15h42.27.798,visual search,2024.1.5,None,2024-10-10 15h42.35.971291 +0530,
143,0,143,0,248.88599309998972,,248.8601794999995,5,248.88599309998972,248.88599309998972,0.017850499993073754,249.88715819999925,250.18899709999096,[0.3491666666666667],[-0.07666666666666666],[1],[0],[0],[1.311344799993094],[],604336,001,2024-10-10_15h42.27.798,visual search,2024.1.5,None,2024-10-10 15h42.35.971291 +0530,
144,0,144,0,250.22152919998916,,250.1936532999971,5,250.22152919998916,250.22152919998916,0.01901539998652879,251.220339099993,251.73931739998807,[0.44],[-0.12166666666666667],[1],[0],[0],[1.5268421999935526],[],604336,001,2024-10-10_15h42.27.798,visual search,2024.1.5,None,2024-10-10 15h42.35.971291 +0530,
145,0,145,0,251.80115129999467,,251.74613329999556,10,251.80115129999467,251.80115129999467,0.03513219999149442,252.81687139999121,254.05536179999763,[0.2633333333333333],[-0.45],[1],[0],[0],[2.2749215999938315],['target'],604336,001,2024-10-10_15h42.27.798,visual search,2024.1.5,None,2024-10-10 15h42.35.971291 +0530,
146,0,146,0,254.08434729999863,,254.0585446999903,5,254.08434729999863,254.08434729999863,0.016726700006984174,255.0874812999973,255.3242012999981,[0.365],[-0.3541666666666667],[1],[0],[0],[1.2488146999967285],['target'],604336,001,2024-10-10_15h42.27.798,visual search,2024.1.5,None,2024-10-10 15h42.35.971291 +0530,
147,0,147,0,255.39384259999497,,255.33120589998725,10,255.39384259999497,255.39384259999497,0.04147549999470357,256.3962182999967,257.2383618999884,[-0.4191666666666667],[0.4766666666666667],[1],[0],[0],[1.8668049999978393],['target'],604336,001,2024-10-10_15h42.27.798,visual search,2024.1.5,None,2024-10-10 15h42.35.971291 +0530,
148,0,148,0,257.29989869998826,,257.24152799999865,10,257.29989869998826,257.29989869998826,0.030731299993931316,258.3338175999961,259.26204469999357,[0.3858333333333333],[0.17333333333333334],[1],[0],[0],[1.990082699994673],['target'],604336,001,2024-10-10_15h42.27.798,visual search,2024.1.5,None,2024-10-10 15h42.35.971291 +0530,
149,0,149,0,259.32277579999936,,259.26559629999974,10,259.32277579999936,259.32277579999936,0.030724899988854304,260.340898800001,263.6962477999914,[-0.05583333333333333],[-0.22666666666666666],[1],[0],[0],[4.4001453000091715],['target'],604336,001,2024-10-10_15h42.27.798,visual search,2024.1.5,None,2024-10-10 15h42.35.971291 +0530,
150,0,150,0,263.7240879999881,,263.69952609999746,5,263.7240879999881,263.7240879999881,0.01646189999883063,264.7376899999945,264.923541799988,[0.195],[-0.03333333333333333],[1],[0],[0],[1.2076888000010513],['target'],604336,001,2024-10-10_15h42.27.798,visual search,2024.1.5,None,2024-10-10 15h42.35.971291 +0530,
151,0,151,0,264.95310400000017,,264.9281210999907,5,264.95310400000017,264.95310400000017,0.01763030000438448,,265.89111499999126,[0.2425],[0.10666666666666667],[1],[0],[0],[0.9458180000074208],[],604336,001,2024-10-10_15h42.27.798,visual search,2024.1.5,None,2024-10-10 15h42.35.971291 +0530,
152,0,152,0,265.93979129999934,,265.8943708000006,10,265.93979129999934,265.93979129999934,0.030709099999512546,266.94213209999725,267.17213409999385,[-0.3125],[0.22333333333333333],[1],[0],[0],[1.247386799994274],['target'],604336,001,2024-10-10_15h42.27.798,visual search,2024.1.5,None,2024-10-10 15h42.35.971291 +0530,
153,0,153,0,267.19978219999757,,267.1753611999884,5,267.19978219999757,267.19978219999757,0.016758700003265403,268.2047099999909,268.4069320999988,[-0.11583333333333333],[-0.013333333333333334],[1],[0],[0],[1.2148258999950485],['target'],604336,001,2024-10-10_15h42.27.798,visual search,2024.1.5,None,2024-10-10 15h42.35.971291 +0530,
154,0,154,0,268.4577860999998,,268.4107910999883,10,268.4577860999998,268.4577860999998,0.03296710000722669,269.47150559999864,270.0437397999922,[-0.20916666666666667],[-0.2658333333333333],[1],[0],[0],[1.600409699996817],['target'],604336,001,2024-10-10_15h42.27.798,visual search,2024.1.5,None,2024-10-10 15h42.35.971291 +0530,
155,0,155,0,270.10083089998807,,270.0471733000013,10,270.10083089998807,270.10083089998807,0.03221359998860862,271.1106897999998,272.77558959998714,[-0.005],[0.25333333333333335],[1],[0],[0],[2.6964966999948956],['target'],604336,001,2024-10-10_15h42.27.798,visual search,2024.1.5,None,2024-10-10 15h42.35.971291 +0530,
156,0,156,0,272.80294689998846,,272.778684799996,5,272.80294689998846,272.80294689998846,0.01622999999381136,273.8044533999928,274.04067999999097,[0.46416666666666667],[0.30833333333333335],[1],[0],[0],[1.2458474000013666],['target'],604336,001,2024-10-10_15h42.27.798,visual search,2024.1.5,None,2024-10-10 15h42.35.971291 +0530,
157,0,157,0,274.0820429999876,,274.04490009999427,5,274.0820429999876,274.0820429999876,0.026630799999111332,275.08776879998914,275.8892855999875,[-0.335],[-0.2075],[1],[0],[0],[1.8181947999983095],['target'],604336,001,2024-10-10_15h42.27.798,visual search,2024.1.5,None,2024-10-10 15h42.35.971291 +0530,
158,0,158,0,275.94515889999457,,275.8935456999898,10,275.94515889999457,275.94515889999457,0.03615949999948498,276.94907829999283,277.1276404999953,[-0.31833333333333336],[0.04416666666666667],[1],[0],[0],[1.1984227999928407],['target'],604336,001,2024-10-10_15h42.27.798,visual search,2024.1.5,None,2024-10-10 15h42.35.971291 +0530,
159,0,159,0,277.15451939999184,,277.1308788999886,5,277.15451939999184,277.15451939999184,0.015792999998666346,278.15506559998903,278.2578962999978,[-0.2841666666666667],[-0.025833333333333333],[1],[0],[0],[1.1109234000032302],['target'],604336,001,2024-10-10_15h42.27.798,visual search,2024.1.5,None,2024-10-10 15h42.35.971291 +0530,
160,0,160,0,278.3091316999926,,278.26202169999306,10,278.3091316999926,278.3091316999926,0.03144069999689236,279.3200102999981,279.9060444999923,[0.22166666666666668],[-0.056666666666666664],[1],[0],[0],[1.6130248999979813],[],604336,001,2024-10-10_15h42.27.798,visual search,2024.1.5,None,2024-10-10 15h42.35.971291 +0530,
161,0,161,0,279.93577820000064,,279.9103863999917,5,279.93577820000064,279.93577820000064,0.017140500000095926,280.9383592999948,281.35805029999756,[-0.22416666666666665],[0.03333333333333333],[1],[0],[0],[1.4307483000011416],['target'],604336,001,2024-10-10_15h42.27.798,visual search,2024.1.5,None,2024-10-10 15h42.35.971291 +0530,
162,0,162,0,281.42041409999365,,281.3624351999897,10,281.42041409999365,281.42041409999365,0.033863500008010305,282.4211809999979,282.5554228999972,[-0.2791666666666667],[-0.08166666666666667],[1],[0],[0],[1.1595692000119016],['target'],604336,001,2024-10-10_15h42.27.798,visual search,2024.1.5,None,2024-10-10 15h42.35.971291 +0530,
163,0,163,0,282.6102103000012,,282.5584985999885,10,282.6102103000012,282.6102103000012,0.030714599997736514,283.626506399989,284.78888860000006,[-0.3641666666666667],[-0.024166666666666666],[1],[0],[0],[2.199981600002502],['target'],604336,001,2024-10-10_15h42.27.798,visual search,2024.1.5,None,2024-10-10 15h42.35.971291 +0530,
164,0,164,0,284.8181900999916,,284.7922541999869,5,284.8181900999916,284.8181900999916,0.016827600004035048,285.82143769999675,287.15728020000097,[-0.049166666666666664],[0.4775],[1],[0],[0],[2.348319500000798],['target'],604336,001,2024-10-10_15h42.27.798,visual search,2024.1.5,None,2024-10-10 15h42.35.971291 +0530,
165,0,165,0,287.1865124999895,,287.16151649999665,5,287.1865124999895,287.1865124999895,0.01721499999985099,288.1889302999916,288.6898087999871,[0.08166666666666667],[-0.435],[1],[0],[0],[1.5117718000110472],['target'],604336,001,2024-10-10_15h42.27.798,visual search,2024.1.5,None,2024-10-10 15h42.35.971291 +0530,
166,0,166,0,288.72500539998873,,288.69403329999477,5,288.72500539998873,288.72500539998873,0.020001099997898564,289.73813689999224,290.0903565999906,[-0.48833333333333334],[0.37833333333333335],[1],[0],[0],[1.3766648000018904],['target'],604336,001,2024-10-10_15h42.27.798,visual search,2024.1.5,None,2024-10-10 15h42.35.971291 +0530,
167,0,167,0,290.11969389999285,,290.09441449999576,5,290.11969389999285,290.11969389999285,0.016969099990092218,291.12180989999615,291.440597599998,[0.03916666666666667],[0.375],[1],[0],[0],[1.329300500001409],['target'],604336,001,2024-10-10_15h42.27.798,visual search,2024.1.5,None,2024-10-10 15h42.35.971291 +0530,
168,0,168,0,291.47107349999715,,291.44499559998803,5,291.47107349999715,291.47107349999715,0.018229499997687526,292.471478499996,292.6398409999965,[-0.22],[0.26166666666666666],[1],[0],[0],[1.1769226999895182],['target'],604336,001,2024-10-10_15h42.27.798,visual search,2024.1.5,None,2024-10-10 15h42.35.971291 +0530,
169,0,169,0,292.6741508999985,,292.64456169999903,5,292.6741508999985,292.6741508999985,0.018988600000739098,293.6884374999936,294.44108959998994,[-0.38333333333333336],[-0.2991666666666667],[1],[0],[0],[1.7772246000095038],['target'],604336,001,2024-10-10_15h42.27.798,visual search,2024.1.5,None,2024-10-10 15h42.35.971291 +0530,
170,0,170,0,294.4963648999983,,294.45040669999435,10,294.4963648999983,294.4963648999983,0.030790399992838502,,295.3249148999894,[-0.3725],[-0.3258333333333333],[1],[0],[0],[0.8438270000042394],['target'],604336,001,2024-10-10_15h42.27.798,visual search,2024.1.5,None,2024-10-10 15h42.35.971291 +0530,
171,0,171,0,295.4063555999892,,295.3280131999927,10,295.4063555999892,295.4063555999892,0.040515899992897175,296.41998619999504,296.85209299999406,[0.06],[-0.12166666666666667],[1],[0],[0],[1.482695099999546],['target'],604336,001,2024-10-10_15h42.27.798,visual search,2024.1.5,None,2024-10-10 15h42.35.971291 +0530,
172,0,172,0,296.8875091999944,,296.855533199996,5,296.8875091999944,296.8875091999944,0.01706360001116991,297.88844979999703,298.45754529999977,[0.37416666666666665],[0.06666666666666667],[1],[0],[0],[1.5849046999937855],['target'],604336,001,2024-10-10_15h42.27.798,visual search,2024.1.5,None,2024-10-10 15h42.35.971291 +0530,
173,0,173,0,298.52460629999405,,298.46277849999024,10,298.52460629999405,298.52460629999405,0.033296299996436574,299.5411563999951,299.855627500001,[0.028333333333333332],[-0.2966666666666667],[1],[0],[0],[1.3602343999955337],['target'],604336,001,2024-10-10_15h42.27.798,visual search,2024.1.5,None,2024-10-10 15h42.35.971291 +0530,
174,0,174,0,299.9141968999902,,299.858636399993,10,299.9141968999902,299.9141968999902,0.03273120000085328,300.93077529998845,301.4445685999963,[0.17416666666666666],[-0.21833333333333332],[1],[0],[0],[1.5534306000045035],['target'],604336,001,2024-10-10_15h42.27.798,visual search,2024.1.5,None,2024-10-10 15h42.35.971291 +0530,
175,0,175,0,301.4733375999931,,301.447746299993,5,301.4733375999931,301.4733375999931,0.01685090000682976,302.4883439999976,303.058597700001,[-0.43916666666666665],[0.12],[1],[0],[0],[1.5935734999948181],['target'],604336,001,2024-10-10_15h42.27.798,visual search,2024.1.5,None,2024-10-10 15h42.35.971291 +0530,
176,0,176,0,303.0903701999923,,303.0633123000007,5,303.0903701999923,303.0903701999923,0.019029099988983944,304.10522169999604,304.2399218999926,[0.15583333333333332],[0.09416666666666666],[1],[0],[0],[1.1580635999998776],['target'],604336,001,2024-10-10_15h42.27.798,visual search,2024.1.5,None,2024-10-10 15h42.35.971291 +0530,
177,0,177,0,304.2945614999917,,304.24465670000063,10,304.2945614999917,304.2945614999917,0.033409600000595674,305.3052260999975,305.55672209999466,[0.018333333333333333],[0.28],[1],[0],[0],[1.279227399994852],['target'],604336,001,2024-10-10_15h42.27.798,visual search,2024.1.5,None,2024-10-10 15h42.35.971291 +0530,
178,0,178,0,305.61974379999447,,305.5598583999963,10,305.61974379999447,305.61974379999447,0.0311055999918608,306.6383271999948,306.82300009999017,[0.28],[0.11333333333333333],[1],[0],[0],[1.2321830000000773],[],604336,001,2024-10-10_15h42.27.798,visual search,2024.1.5,None,2024-10-10 15h42.35.971291 +0530,
179,0,179,0,306.85394489999453,,306.8262154999975,5,306.85394489999453,306.85394489999453,0.01558639999711886,307.8555730999942,308.02572919998784,[0.41],[-0.2941666666666667],[1],[0],[0],[1.183687299999292],[],604336,001,2024-10-10_15h42.27.798,visual search,2024.1.5,None,2024-10-10 15h42.35.971291 +0530,
180,0,180,0,308.0594803999993,,308.02984769998875,5,308.0594803999993,308.0594803999993,0.020293699999456294,309.07249759999104,309.2583442999894,[0.4225],[-0.15],[1],[0],[0],[1.2081120999937411],[],604336,001,2024-10-10_15h42.27.798,visual search,2024.1.5,None,2024-10-10 15h42.35.971291 +0530,
181,0,181,0,309.29091250000056,,309.26285149999603,5,309.29091250000056,309.29091250000056,0.019359700003406033,310.3051448999904,310.59136219999345,[-0.29333333333333333],[0.26166666666666666],[1],[0],[0],[1.3093384000094375],[],604336,001,2024-10-10_15h42.27.798,visual search,2024.1.5,None,2024-10-10 15h42.35.971291 +0530,
182,0,182,0,310.65183779998915,,310.59654259998933,10,310.65183779998915,310.65183779998915,0.033523399994010106,311.6661163999961,311.8895584999991,[0.03],[-0.26],[1],[0],[0],[1.2601178000040818],[],604336,001,2024-10-10_15h42.27.798,visual search,2024.1.5,None,2024-10-10 15h42.35.971291 +0530,
183,0,183,0,311.9177779999882,,311.8926466999983,5,311.9177779999882,311.9177779999882,0.01642559999891091,312.921909599987,314.0571707999916,[0.25666666666666665],[0.18416666666666667],[1],[0],[0],[2.148176299990155],[],604336,001,2024-10-10_15h42.27.798,visual search,2024.1.5,None,2024-10-10 15h42.35.971291 +0530,
184,0,184,0,314.11416139999346,,314.061543799995,10,314.11416139999346,314.11416139999346,0.034848600000259466,315.12259970000014,315.13986319999094,[0.0725],[0.245],[1],[0],[0],[1.0440251999971224],[],604336,001,2024-10-10_15h42.27.798,visual search,2024.1.5,None,2024-10-10 15h42.35.971291 +0530,
185,0,185,0,315.1966590999946,,315.1434006999916,10,315.1966590999946,315.1966590999946,0.03150439998717047,316.2250898999919,316.44683429998986,[0.3458333333333333],[0.19166666666666668],[1],[0],[0],[1.272260500001721],['target'],604336,001,2024-10-10_15h42.27.798,visual search,2024.1.5,None,2024-10-10 15h42.35.971291 +0530,
186,0,186,0,316.50984829998924,,316.4499130999902,10,316.50984829998924,316.50984829998924,0.03095350001240149,317.51956259999133,317.95768099999987,[0.5],[0.355],[1],[0],[0],[1.4770779000100447],[],604336,001,2024-10-10_15h42.27.798,visual search,2024.1.5,None,2024-10-10 15h42.35.971291 +0530,
187,0,187,0,317.98927879999974,,317.9610619999876,5,317.98927879999974,317.98927879999974,0.016661100002238527,318.98862879999797,319.4252569999953,[0.445],[0.32166666666666666],[1],[0],[0],[1.4475820000079693],['target'],604336,001,2024-10-10_15h42.27.798,visual search,2024.1.5,None,2024-10-10 15h42.35.971291 +0530,
188,0,188,0,319.48535339999944,,319.4297704999917,10,319.48535339999944,319.48535339999944,0.03462299999955576,320.4886800999957,321.40604339999845,[-0.36916666666666664],[-0.4191666666666667],[1],[0],[0],[1.9421682999964105],[],604336,001,2024-10-10_15h42.27.798,visual search,2024.1.5,None,2024-10-10 15h42.35.971291 +0530,
189,0,189,0,321.468787699996,,321.4091434000002,10,321.468787699996,321.468787699996,0.031109599993214943,322.47846499999287,322.6505892999994,[-0.030833333333333334],[0.035],[1],[0],[0],[1.2103140000108397],['target'],604336,001,2024-10-10_15h42.27.798,visual search,2024.1.5,None,2024-10-10 15h42.35.971291 +0530,
190,0,190,0,322.68494789999386,,322.65452789999836,5,322.68494789999386,322.68494789999386,0.019809100005659275,323.68871649999346,323.8913612999895,[0.36833333333333335],[-0.04],[1],[0],[0],[1.2176288000046043],['target'],604336,001,2024-10-10_15h42.27.798,visual search,2024.1.5,None,2024-10-10 15h42.35.971291 +0530,
191,0,191,0,323.9500121999881,,323.8959876000008,10,323.9500121999881,323.9500121999881,0.033612400002311915,324.9471634999936,325.47410089999903,[0.4275],[-0.305],[1],[0],[0],[1.5448788999929093],['target'],604336,001,2024-10-10_15h42.27.798,visual search,2024.1.5,None,2024-10-10 15h42.35.971291 +0530,
192,0,192,0,325.5024887999898,,325.47757209998963,5,325.5024887999898,325.5024887999898,0.016513100010342896,326.50582700000086,326.79114950000076,[-0.43416666666666665],[0.17333333333333334],[1],[0],[0],[1.297083899989957],['target'],604336,001,2024-10-10_15h42.27.798,visual search,2024.1.5,None,2024-10-10 15h42.35.971291 +0530,
193,0,193,0,326.8233379000012,,326.7962464999873,5,326.8233379000012,326.8233379000012,0.01840529999753926,327.8222242999909,328.9083355999901,[0.3875],[-0.4583333333333333],[1],[0],[0],[2.093945000000531],['target'],604336,001,2024-10-10_15h42.27.798,visual search,2024.1.5,None,2024-10-10 15h42.35.971291 +0530,
194,0,194,0,328.9415691999893,,328.91306899998744,5,328.9415691999893,328.9415691999893,0.01827430000412278,329.9563533999899,330.06134239998937,[-0.020833333333333332],[-0.035],[1],[0],[0],[1.1300236999959452],['target'],604336,001,2024-10-10_15h42.27.798,visual search,2024.1.5,None,2024-10-10 15h42.35.971291 +0530,
195,0,195,0,330.1289376999921,,330.065042599992,10,330.1289376999921,330.1289376999921,0.04170149999845307,,330.9585650999943,[0.03],[0.050833333333333335],[1],[0],[0],[0.8517414999951143],[],604336,001,2024-10-10_15h42.27.798,visual search,2024.1.5,None,2024-10-10 15h42.35.971291 +0530,
196,0,196,0,331.02147649999824,,330.9614869999932,10,331.02147649999824,331.02147649999824,0.03233480000926647,,331.8840460999927,[0.16416666666666666],[0.019166666666666665],[1],[0],[0],[0.8901079000061145],['target'],604336,001,2024-10-10_15h42.27.798,visual search,2024.1.5,None,2024-10-10 15h42.35.971291 +0530,
197,0,197,0,331.91365419999056,,331.88720819998707,5,331.91365419999056,331.91365419999056,0.01584599999478087,332.92242319999787,333.3256904999871,[0.19333333333333333],[-0.2783333333333333],[1],[0],[0],[1.4227366999984952],[],604336,001,2024-10-10_15h42.27.798,visual search,2024.1.5,None,2024-10-10 15h42.35.971291 +0530,
198,0,198,0,333.38346029999957,,333.33073459999287,10,333.38346029999957,333.38346029999957,0.03353979998792056,334.388998800001,335.8074052000011,[-0.1775],[0.27416666666666667],[1],[0],[0],[2.4438531000050716],[],604336,001,2024-10-10_15h42.27.798,visual search,2024.1.5,None,2024-10-10 15h42.35.971291 +0530,
199,0,199,0,335.8406998999999,,335.81070079999336,5,335.8406998999999,335.8406998999999,0.01663699999335222,336.8557599999913,337.87432999999146,[0.43],[-0.3975],[1],[0],[0],[2.0470000999921467],[],604336,001,2024-10-10_15h42.27.798,visual search,2024.1.5,None,2024-10-10 15h42.35.971291 +0530,
