reward_today,future_reward,delay,trials.thisRepN,trials.thisTrialN,trials.thisN,trials.thisIndex,thisRow.t,notes,trial.started,fixation.started,text.started,key_resp.started,fixation.stopped,trial.stopped,key_resp.keys,key_resp.rt,key_resp.duration,participant,session,date,expName,psychopyVersion,frameRate,expStart,
78,80,162,0,0,0,6,0.23187420004978776,,0.02941740001551807,0.23187420004978776,1.006286000018008,1.006286000018008,1.2392913000076078,9.832368800009135,t,8.813044500013348,None,634119,001,2024-11-15_16h09.24.331,delayed discounting,2024.1.5,None,2024-11-15 16h09.39.280853 +0530,
67,75,119,0,1,1,5,9.848198200052138,,9.835562899999786,9.848198200052138,10.83877820003545,10.83877820003545,10.855795800045598,12.225761400011834,l,1.3824930000118911,None,634119,001,2024-11-15_16h09.24.331,delayed discounting,2024.1.5,None,2024-11-15 16h09.39.280853 +0530,
49,60,89,0,2,2,4,12.242515999998432,,12.227463000046555,12.242515999998432,13.238959300040733,13.238959300040733,13.255748499999754,13.890210600045975,t,0.6444414999568835,None,634119,001,2024-11-15_16h09.24.331,delayed discounting,2024.1.5,None,2024-11-15 16h09.39.280853 +0530,
40,55,62,0,3,3,3,13.90590480004903,,13.891003600030672,13.90590480004903,14.905749100027606,14.905749100027606,14.905749100027606,15.294421200000215,t,0.3823102999594994,None,634119,001,2024-11-15_16h09.24.331,delayed discounting,2024.1.5,None,2024-11-15 16h09.39.280853 +0530,
27,50,21,0,4,4,2,15.309363900043536,,15.29599330003839,15.309363900043536,16.305578300030902,16.305578300030902,16.322235500032548,16.60964270000113,t,0.297617900010664,None,634119,001,2024-11-15_16h09.24.331,delayed discounting,2024.1.5,None,2024-11-15 16h09.39.280853 +0530,
11,30,7,0,5,5,0,16.65067810000619,,16.611773700045887,16.65067810000619,17.622213600028772,17.622213600028772,17.6555838000495,17.890975500049535,l,0.2580599999637343,None,634119,001,2024-11-15_16h09.24.331,delayed discounting,2024.1.5,None,2024-11-15 16h09.39.280853 +0530,
15,35,13,0,6,6,1,17.909515200008173,,17.892422000004444,17.909515200008173,18.905646800005343,18.905646800005343,18.92225890001282,19.573305700032506,l,0.6512644999893382,None,634119,001,2024-11-15_16h09.24.331,delayed discounting,2024.1.5,None,2024-11-15 16h09.39.280853 +0530,
27,50,21,1,0,7,2,19.588600000017323,,19.57402749999892,19.588600000017323,20.58852560003288,20.58852560003288,20.58852560003288,20.79050190001726,t,0.19009899999946356,None,634119,001,2024-11-15_16h09.24.331,delayed discounting,2024.1.5,None,2024-11-15 16h09.39.280853 +0530,
40,55,62,1,1,8,3,20.805649600049946,,20.791369100043084,20.805649600049946,21.80540520005161,21.80540520005161,21.80540520005161,22.124026200035587,l,0.3144946999964304,None,634119,001,2024-11-15_16h09.24.331,delayed discounting,2024.1.5,None,2024-11-15 16h09.39.280853 +0530,
49,60,89,1,2,9,4,22.13871680002194,,22.12506970000686,22.13871680002194,23.138631200010423,23.138631200010423,23.138631200010423,23.640408400038723,t,0.4861635000561364,None,634119,001,2024-11-15_16h09.24.331,delayed discounting,2024.1.5,None,2024-11-15 16h09.39.280853 +0530,
78,80,162,1,3,10,6,23.655506700044498,,23.642352499999106,23.655506700044498,24.655426800018176,24.655426800018176,24.655426800018176,24.927260900032707,l,0.2674739999929443,None,634119,001,2024-11-15_16h09.24.331,delayed discounting,2024.1.5,None,2024-11-15 16h09.39.280853 +0530,
67,75,119,1,4,11,5,24.938570700003766,,24.92850430001272,24.938570700003766,25.938945800007787,25.938945800007787,25.938945800007787,26.426317600009497,t,0.4734642000403255,None,634119,001,2024-11-15_16h09.24.331,delayed discounting,2024.1.5,None,2024-11-15 16h09.39.280853 +0530,
11,30,7,1,5,12,0,26.445214400009718,,26.427890100050718,26.445214400009718,27.438566200027708,27.438566200027708,27.455474800022785,27.77676010003779,l,0.33413909998489544,None,634119,001,2024-11-15_16h09.24.331,delayed discounting,2024.1.5,None,2024-11-15 16h09.39.280853 +0530,
15,35,13,1,6,13,1,27.809657700010575,,27.77827370003797,27.809657700010575,28.788441300042905,28.788441300042905,28.822284200054128,29.05817340000067,l,0.25967499997932464,None,634119,001,2024-11-15_16h09.24.331,delayed discounting,2024.1.5,None,2024-11-15 16h09.39.280853 +0530,
40,55,62,2,0,14,3,29.07216950005386,,29.059494300046936,29.07216950005386,30.072068400040735,30.072068400040735,30.072068400040735,30.140060000005178,l,0.06492370000341907,None,634119,001,2024-11-15_16h09.24.331,delayed discounting,2024.1.5,None,2024-11-15 16h09.39.280853 +0530,
67,75,119,2,1,15,5,30.155340700002853,,30.14074130001245,30.155340700002853,31.155448100005742,31.155448100005742,31.155448100005742,31.675795300048776,t,0.5030666000093333,None,634119,001,2024-11-15_16h09.24.331,delayed discounting,2024.1.5,None,2024-11-15 16h09.39.280853 +0530,
49,60,89,2,2,16,4,31.691195200022776,,31.677227500011213,31.691195200022776,32.68857900000876,32.68857900000876,32.70533650001744,33.159506000054535,t,0.4681280000368133,None,634119,001,2024-11-15_16h09.24.331,delayed discounting,2024.1.5,None,2024-11-15 16h09.39.280853 +0530,
15,35,13,2,3,17,1,33.17509980004979,,33.160872200038284,33.17509980004979,34.17204460001085,34.17204460001085,34.188560700044036,34.50725990004139,l,0.3237795000313781,None,634119,001,2024-11-15_16h09.24.331,delayed discounting,2024.1.5,None,2024-11-15 16h09.39.280853 +0530,
27,50,21,2,4,18,2,34.522094600019045,,34.50830380001571,34.522094600019045,35.52203550003469,35.52203550003469,35.52203550003469,35.556664300034754,l,0.01793630002066493,None,634119,001,2024-11-15_16h09.24.331,delayed discounting,2024.1.5,None,2024-11-15 16h09.39.280853 +0530,
11,30,7,2,5,19,0,35.5719161000452,,35.55767550005112,35.5719161000452,36.57183500000974,36.57183500000974,36.57183500000974,36.95988900004886,t,0.3831713999970816,None,634119,001,2024-11-15_16h09.24.331,delayed discounting,2024.1.5,None,2024-11-15 16h09.39.280853 +0530,
78,80,162,2,6,20,6,36.972476200025994,,36.96158580004703,36.972476200025994,37.97197100002086,37.97197100002086,37.97197100002086,38.27576000004774,l,0.2869359999895096,None,634119,001,2024-11-15_16h09.24.331,delayed discounting,2024.1.5,None,2024-11-15 16h09.39.280853 +0530,
40,55,62,3,0,21,3,38.288652100018226,,38.276719700021204,38.288652100018226,39.288414100010414,39.288414100010414,39.288414100010414,39.5756917000399,l,0.2830138999852352,None,634119,001,2024-11-15_16h09.24.331,delayed discounting,2024.1.5,None,2024-11-15 16h09.39.280853 +0530,
67,75,119,3,1,22,5,39.5895589000429,,39.57706470001722,39.5895589000429,40.58840460004285,40.58840460004285,40.60528120002709,40.8740867000306,l,0.27523319999454543,None,634119,001,2024-11-15_16h09.24.331,delayed discounting,2024.1.5,None,2024-11-15 16h09.39.280853 +0530,
78,80,162,3,2,23,6,40.88840680004796,,40.87529250001535,40.88840680004796,41.88840010005515,41.88840010005515,41.88840010005515,42.20735340000829,l,0.31342469999799505,None,634119,001,2024-11-15_16h09.24.331,delayed discounting,2024.1.5,None,2024-11-15 16h09.39.280853 +0530,
11,30,7,3,3,24,0,42.22308880003402,,42.20827740000095,42.22308880003402,43.2218568000244,43.2218568000244,43.23837170004845,43.72411270003067,t,0.49203940003644675,None,634119,001,2024-11-15_16h09.24.331,delayed discounting,2024.1.5,None,2024-11-15 16h09.39.280853 +0530,
15,35,13,3,4,25,1,43.74153870000737,,43.72566789999837,43.74153870000737,44.73835310002323,44.73835310002323,44.75516330002574,45.00775660004001,t,0.2527412999770604,None,634119,001,2024-11-15_16h09.24.331,delayed discounting,2024.1.5,None,2024-11-15 16h09.39.280853 +0530,
49,60,89,3,5,26,4,45.02179960004287,,45.00877790001687,45.02179960004287,46.02186570002232,46.02186570002232,46.02186570002232,46.30951210000785,t,0.2827972999657504,None,634119,001,2024-11-15_16h09.24.331,delayed discounting,2024.1.5,None,2024-11-15 16h09.39.280853 +0530,
27,50,21,3,6,27,2,46.323635300039314,,46.31084170000395,46.323635300039314,47.32176010002149,47.32176010002149,47.3382632000139,47.6925206000451,l,0.363013599999249,None,634119,001,2024-11-15_16h09.24.331,delayed discounting,2024.1.5,None,2024-11-15 16h09.39.280853 +0530,
15,35,13,4,0,28,1,47.70730210002512,,47.693396600021515,47.70730210002512,48.7050352000515,48.7050352000515,48.72197170002619,48.823261000041384,t,0.11587949999375269,None,634119,001,2024-11-15_16h09.24.331,delayed discounting,2024.1.5,None,2024-11-15 16h09.39.280853 +0530,
11,30,7,4,1,29,0,48.83812460000627,,48.82403380004689,48.83812460000627,49.83819090004545,49.83819090004545,49.83819090004545,49.92346180003369,l,0.08332320000045002,None,634119,001,2024-11-15_16h09.24.331,delayed discounting,2024.1.5,None,2024-11-15 16h09.39.280853 +0530,
78,80,162,4,2,30,6,49.93829290004214,,49.92414860002464,49.93829290004214,50.93822840001667,50.93822840001667,50.93822840001667,51.42508730001282,l,0.48027319996617734,None,634119,001,2024-11-15_16h09.24.331,delayed discounting,2024.1.5,None,2024-11-15 16h09.39.280853 +0530,
49,60,89,4,3,31,4,51.43952930002706,,51.426437800051644,51.43952930002706,52.43828800000483,52.43828800000483,52.45504820003407,52.72370380000211,t,0.26992700004484504,None,634119,001,2024-11-15_16h09.24.331,delayed discounting,2024.1.5,None,2024-11-15 16h09.39.280853 +0530,
67,75,119,4,4,32,5,52.73844190000091,,52.725050500012,52.73844190000091,53.73816730000544,53.73816730000544,53.73816730000544,54.17566010000883,l,0.4220700000296347,None,634119,001,2024-11-15_16h09.24.331,delayed discounting,2024.1.5,None,2024-11-15 16h09.39.280853 +0530,
40,55,62,4,5,33,3,54.19117620005272,,54.17693800001871,54.19117620005272,55.18818850000389,55.18818850000389,55.20491630001925,55.79206600005273,t,0.5992315000039525,None,634119,001,2024-11-15_16h09.24.331,delayed discounting,2024.1.5,None,2024-11-15 16h09.39.280853 +0530,
27,50,21,4,6,34,2,55.8050135000376,,55.79373580001993,55.8050135000376,56.80490440002177,56.80490440002177,56.80490440002177,56.82294850004837,l,0.0057895000209100544,None,634119,001,2024-11-15_16h09.24.331,delayed discounting,2024.1.5,None,2024-11-15 16h09.39.280853 +0530,
27,50,21,5,0,35,2,56.83809790003579,,56.82405600004131,56.83809790003579,57.838139300001785,57.838139300001785,57.838139300001785,58.675273600034416,l,0.8273360999883153,None,634119,001,2024-11-15_16h09.24.331,delayed discounting,2024.1.5,None,2024-11-15 16h09.39.280853 +0530,
40,55,62,5,1,36,3,58.691451899998356,,58.67647380003473,58.691451899998356,59.68824860005407,59.68824860005407,59.705068000010215,60.22283070004778,t,0.5295103999669664,None,634119,001,2024-11-15_16h09.24.331,delayed discounting,2024.1.5,None,2024-11-15 16h09.39.280853 +0530,
15,35,13,5,2,37,1,60.23790000000736,,60.22371770004975,60.23790000000736,61.23908270004904,61.23908270004904,61.23908270004904,64.18970450002234,l,2.939970200008247,None,634119,001,2024-11-15_16h09.24.331,delayed discounting,2024.1.5,None,2024-11-15 16h09.39.280853 +0530,
49,60,89,5,3,38,4,64.20474090002244,,64.19100490002893,64.20474090002244,65.20474630000535,65.20474630000535,65.20474630000535,65.85586560005322,t,0.6392175999935716,None,634119,001,2024-11-15_16h09.24.331,delayed discounting,2024.1.5,None,2024-11-15 16h09.39.280853 +0530,
67,75,119,5,4,39,5,65.87139090005076,,65.85719750000862,65.87139090005076,66.87149930000305,66.87149930000305,66.87149930000305,67.77304480003659,l,0.890447000041604,None,634119,001,2024-11-15_16h09.24.331,delayed discounting,2024.1.5,None,2024-11-15 16h09.39.280853 +0530,
78,80,162,5,5,40,6,67.7882633000263,,67.77358700003242,67.7882633000263,68.78825560002588,68.78825560002588,68.78825560002588,69.55626280000433,t,0.7633480000076815,None,634119,001,2024-11-15_16h09.24.331,delayed discounting,2024.1.5,None,2024-11-15 16h09.39.280853 +0530,
11,30,7,5,6,41,0,69.57158190000337,,69.55684610002209,69.57158190000337,70.57143240002915,70.57143240002915,70.57143240002915,71.09095050004544,l,0.5047381999902427,None,634119,001,2024-11-15_16h09.24.331,delayed discounting,2024.1.5,None,2024-11-15 16h09.39.280853 +0530,
15,35,13,6,0,42,1,71.10480880003888,,71.09236940002302,71.10480880003888,72.10551280004438,72.10551280004438,72.10551280004438,72.58931860001758,t,0.4799520000233315,None,634119,001,2024-11-15_16h09.24.331,delayed discounting,2024.1.5,None,2024-11-15 16h09.39.280853 +0530,
49,60,89,6,1,43,4,72.60476880002534,,72.59002060000785,72.60476880002534,73.60476310004015,73.60476310004015,73.60476310004015,74.50584789999994,t,0.8866976000135764,None,634119,001,2024-11-15_16h09.24.331,delayed discounting,2024.1.5,None,2024-11-15 16h09.39.280853 +0530,
27,50,21,6,2,44,2,74.52127750002546,,74.50662150001153,74.52127750002546,75.52188300003763,75.52188300003763,75.52188300003763,75.9063297000248,l,0.366745000006631,None,634119,001,2024-11-15_16h09.24.331,delayed discounting,2024.1.5,None,2024-11-15 16h09.39.280853 +0530,
78,80,162,6,3,45,6,75.92138830001932,,75.90739170002053,75.92138830001932,76.92140020005172,76.92140020005172,76.92140020005172,77.10902250005165,l,0.18369929998880252,None,634119,001,2024-11-15_16h09.24.331,delayed discounting,2024.1.5,None,2024-11-15 16h09.39.280853 +0530,
40,55,62,6,4,46,3,77.12122460000683,,77.10990370000945,77.12122460000683,78.12136470002588,78.12136470002588,78.12136470002588,78.35617860005004,l,0.22775220003677532,None,634119,001,2024-11-15_16h09.24.331,delayed discounting,2024.1.5,None,2024-11-15 16h09.39.280853 +0530,
67,75,119,6,5,47,5,78.37135900004068,,78.35683320002863,78.37135900004068,79.37111250002636,79.37111250002636,79.37111250002636,79.57304730004398,t,0.1997245000093244,None,634119,001,2024-11-15_16h09.24.331,delayed discounting,2024.1.5,None,2024-11-15 16h09.39.280853 +0530,
11,30,7,6,6,48,0,79.58767680003075,,79.57402080000611,79.58767680003075,80.58778620004887,80.58778620004887,80.58778620004887,80.7390952000278,t,0.14601419999962673,None,634119,001,2024-11-15_16h09.24.331,delayed discounting,2024.1.5,None,2024-11-15 16h09.39.280853 +0530,
15,35,13,7,0,49,1,80.75454300001729,,80.73994170001242,80.75454300001729,81.75464290002128,81.75464290002128,81.75464290002128,81.98977060004836,l,0.22710790002020076,None,634119,001,2024-11-15_16h09.24.331,delayed discounting,2024.1.5,None,2024-11-15 16h09.39.280853 +0530,
40,55,62,7,1,50,3,82.00468690000707,,81.99051250005141,82.00468690000707,83.0047109000152,83.0047109000152,83.0047109000152,83.02280460001202,l,0.01570049999281764,None,634119,001,2024-11-15_16h09.24.331,delayed discounting,2024.1.5,None,2024-11-15 16h09.39.280853 +0530,
27,50,21,7,2,51,2,83.03790580003988,,83.02358970005298,83.03790580003988,84.03775760001736,84.03775760001736,84.03775760001736,84.08879510004772,t,0.03626680001616478,None,634119,001,2024-11-15_16h09.24.331,delayed discounting,2024.1.5,None,2024-11-15 16h09.39.280853 +0530,
67,75,119,7,3,52,5,84.10450420004781,,84.0898748000036,84.10450420004781,85.10449720005272,85.10449720005272,85.10449720005272,85.44027790002292,l,0.3328650000039488,None,634119,001,2024-11-15_16h09.24.331,delayed discounting,2024.1.5,None,2024-11-15 16h09.39.280853 +0530,
49,60,89,7,4,53,4,85.4547343000304,,85.44159120001132,85.4547343000304,86.45455090003088,86.45455090003088,86.45455090003088,86.83918540005106,t,0.3747348000179045,None,634119,001,2024-11-15_16h09.24.331,delayed discounting,2024.1.5,None,2024-11-15 16h09.39.280853 +0530,
78,80,162,7,5,54,6,86.85445290000644,,86.84002120001242,86.85445290000644,87.85454570001457,87.85454570001457,87.85454570001457,88.64189400000032,l,0.7817862000083551,None,634119,001,2024-11-15_16h09.24.331,delayed discounting,2024.1.5,None,2024-11-15 16h09.39.280853 +0530,
11,30,7,7,6,55,0,88.65758780000033,,88.64310960000148,88.65758780000033,89.65463000000454,89.65463000000454,89.67127610003809,89.92267920001177,t,0.26109689997974783,None,634119,001,2024-11-15_16h09.24.331,delayed discounting,2024.1.5,None,2024-11-15 16h09.39.280853 +0530,
27,50,21,8,0,56,2,89.93751590000466,,89.92324540001573,89.93751590000466,90.93766550003784,90.93766550003784,90.93766550003784,91.20606960001169,t,0.25216730003012344,None,634119,001,2024-11-15_16h09.24.331,delayed discounting,2024.1.5,None,2024-11-15 16h09.39.280853 +0530,
49,60,89,8,1,57,4,91.22128250001697,,91.20702450000681,91.22128250001697,92.22116220003227,92.22116220003227,92.22116220003227,92.33898990001762,t,0.10369550000177696,None,634119,001,2024-11-15_16h09.24.331,delayed discounting,2024.1.5,None,2024-11-15 16h09.39.280853 +0530,
40,55,62,8,2,58,3,92.35426030005328,,92.33972830005223,92.35426030005328,93.3543989000027,93.3543989000027,93.3543989000027,94.0090906000114,l,0.6358191999606788,None,634119,001,2024-11-15_16h09.24.331,delayed discounting,2024.1.5,None,2024-11-15 16h09.39.280853 +0530,
11,30,7,8,3,59,0,94.02734070003498,,94.01042440003948,94.02734070003498,95.02106270001968,95.02106270001968,95.03752840001835,95.80851500004064,t,0.7712921000202186,None,634119,001,2024-11-15_16h09.24.331,delayed discounting,2024.1.5,None,2024-11-15 16h09.39.280853 +0530,
78,80,162,8,4,60,6,95.82593310001539,,95.80983640003251,95.82593310001539,96.82100680004805,96.82100680004805,96.83757220004918,96.9887560000061,t,0.16323989996453747,None,634119,001,2024-11-15_16h09.24.331,delayed discounting,2024.1.5,None,2024-11-15 16h09.39.280853 +0530,
15,35,13,8,5,61,1,97.00441230001161,,96.98934760002885,97.00441230001161,98.00440370000433,98.00440370000433,98.00440370000433,98.27252400002908,t,0.2521311999880709,None,634119,001,2024-11-15_16h09.24.331,delayed discounting,2024.1.5,None,2024-11-15 16h09.39.280853 +0530,
67,75,119,8,6,62,5,98.28761310002301,,98.27342969999881,98.28761310002301,99.28750050003873,99.28750050003873,99.28750050003873,99.57733739999821,l,0.2725464000250213,None,634119,001,2024-11-15_16h09.24.331,delayed discounting,2024.1.5,None,2024-11-15 16h09.39.280853 +0530,
67,75,119,9,0,63,5,99.59104610001668,,99.57835930003785,99.59104610001668,100.5875253000413,100.5875253000413,100.60451990005095,100.73874160001287,l,0.14281310001388192,None,634119,001,2024-11-15_16h09.24.331,delayed discounting,2024.1.5,None,2024-11-15 16h09.39.280853 +0530,
15,35,13,9,1,64,1,100.75421350001125,,100.73965340002906,100.75421350001125,101.75446470000315,101.75446470000315,101.75446470000315,102.22887910000281,l,0.467336300003808,None,634119,001,2024-11-15_16h09.24.331,delayed discounting,2024.1.5,None,2024-11-15 16h09.39.280853 +0530,
27,50,21,9,2,65,2,102.2416328000254,,102.23255680000875,102.2416328000254,103.23774110001978,103.23774110001978,103.25495990004856,103.67309680004837,l,0.43316700001014397,None,634119,001,2024-11-15_16h09.24.331,delayed discounting,2024.1.5,None,2024-11-15 16h09.39.280853 +0530,
11,30,7,9,3,66,0,103.68738210003357,,103.67428080004174,103.68738210003357,104.6873383000493,104.6873383000493,104.6873383000493,104.9887348000193,l,0.2986230999813415,None,634119,001,2024-11-15_16h09.24.331,delayed discounting,2024.1.5,None,2024-11-15 16h09.39.280853 +0530,
78,80,162,9,4,67,6,105.00415790005354,,104.9893459000159,105.00415790005354,106.0040778000257,106.0040778000257,106.0040778000257,107.2884355999995,l,1.2748760000104085,None,634119,001,2024-11-15_16h09.24.331,delayed discounting,2024.1.5,None,2024-11-15 16h09.39.280853 +0530,
40,55,62,9,5,68,3,107.30413570004748,,107.28899180004373,107.30413570004748,108.30423530004919,108.30423530004919,108.30423530004919,108.32203550002305,t,0.0025638999650254846,None,634119,001,2024-11-15_16h09.24.331,delayed discounting,2024.1.5,None,2024-11-15 16h09.39.280853 +0530,
49,60,89,9,6,69,4,108.33730290003587,,108.32304420002038,108.33730290003587,109.33732230000896,109.33732230000896,109.33732230000896,109.45562010002322,l,0.11177000001771376,None,634119,001,2024-11-15_16h09.24.331,delayed discounting,2024.1.5,None,2024-11-15 16h09.39.280853 +0530,
27,50,21,10,0,70,2,109.47095250000712,,109.45641820004676,109.47095250000712,110.47088510001777,110.47088510001777,110.47088510001777,111.09019300004002,t,0.6121836999664083,None,634119,001,2024-11-15_16h09.24.331,delayed discounting,2024.1.5,None,2024-11-15 16h09.39.280853 +0530,
78,80,162,10,1,71,6,111.10418500000378,,111.09173560002819,111.10418500000378,112.10436340002343,112.10436340002343,112.10436340002343,112.42222090001451,l,0.31344380002701655,None,634119,001,2024-11-15_16h09.24.331,delayed discounting,2024.1.5,None,2024-11-15 16h09.39.280853 +0530,
67,75,119,10,2,72,5,112.43724650004879,,112.42317910003476,112.43724650004879,113.44721180002671,113.44721180002671,113.44721180002671,113.85526610002853,l,0.3946155000012368,None,634119,001,2024-11-15_16h09.24.331,delayed discounting,2024.1.5,None,2024-11-15 16h09.39.280853 +0530,
40,55,62,10,3,73,3,113.87176750000799,,113.85605850000866,113.87176750000799,114.87079160002759,114.87079160002759,114.88721160002751,114.98818880005274,l,0.10968759999377653,None,634119,001,2024-11-15_16h09.24.331,delayed discounting,2024.1.5,None,2024-11-15 16h09.39.280853 +0530,
15,35,13,10,4,74,1,115.00388160004513,,114.98887570004445,115.00388160004513,116.00411830004305,116.00411830004305,116.00411830004305,116.33821000001626,t,0.3274985000025481,None,634119,001,2024-11-15_16h09.24.331,delayed discounting,2024.1.5,None,2024-11-15 16h09.39.280853 +0530,
11,30,7,10,5,75,0,116.35394870000891,,116.33895470004063,116.35394870000891,117.35400810005376,117.35400810005376,117.35400810005376,118.55547090002801,l,1.1946054000291042,None,634119,001,2024-11-15_16h09.24.331,delayed discounting,2024.1.5,None,2024-11-15 16h09.39.280853 +0530,
49,60,89,10,6,76,4,118.5705772000365,,118.55625480000162,118.5705772000365,119.57069730001967,119.57069730001967,119.57069730001967,119.62192950001918,t,0.04185130004771054,None,634119,001,2024-11-15_16h09.24.331,delayed discounting,2024.1.5,None,2024-11-15 16h09.39.280853 +0530,
40,55,62,11,0,77,3,119.6371172000072,,119.62269670004025,119.6371172000072,120.63717750000069,120.63717750000069,120.63717750000069,121.22179070004495,l,0.5792319999891333,None,634119,001,2024-11-15_16h09.24.331,delayed discounting,2024.1.5,None,2024-11-15 16h09.39.280853 +0530,
27,50,21,11,1,78,2,121.2370818000054,,121.22266120003769,121.2370818000054,122.2377682000515,122.2377682000515,122.2377682000515,122.58890250005061,t,0.34372160001657903,None,634119,001,2024-11-15_16h09.24.331,delayed discounting,2024.1.5,None,2024-11-15 16h09.39.280853 +0530,
67,75,119,11,2,79,5,122.60409940005047,,122.58978060004301,122.60409940005047,123.60391730000265,123.60391730000265,123.60391730000265,123.89083730004495,t,0.28270929999416694,None,634119,001,2024-11-15_16h09.24.331,delayed discounting,2024.1.5,None,2024-11-15 16h09.39.280853 +0530,
78,80,162,11,3,80,6,123.90372880001087,,123.89175260002958,123.90372880001087,124.90400480001699,124.90400480001699,124.90400480001699,125.02153740002541,l,0.10741380002582446,None,634119,001,2024-11-15_16h09.24.331,delayed discounting,2024.1.5,None,2024-11-15 16h09.39.280853 +0530,
11,30,7,11,4,81,0,125.03704300004756,,125.02207400003681,125.03704300004756,126.0370204000501,126.0370204000501,126.0370204000501,126.07164710003417,t,0.024519399972632527,None,634119,001,2024-11-15_16h09.24.331,delayed discounting,2024.1.5,None,2024-11-15 16h09.39.280853 +0530,
49,60,89,11,5,82,4,126.0869424000266,,126.07243350002682,126.0869424000266,127.08708540000953,127.08708540000953,127.08708540000953,127.83970540005248,l,0.7484494999516755,None,634119,001,2024-11-15_16h09.24.331,delayed discounting,2024.1.5,None,2024-11-15 16h09.39.280853 +0530,
15,35,13,11,6,83,1,127.85436900000786,,127.84104480000678,127.85436900000786,128.8547782000387,128.8547782000387,128.8547782000387,130.3383703000145,t,1.469188800023403,None,634119,001,2024-11-15_16h09.24.331,delayed discounting,2024.1.5,None,2024-11-15 16h09.39.280853 +0530,
27,50,21,12,0,84,2,130.3538566000061,,130.33917720004683,130.3538566000061,131.35372370004188,131.35372370004188,131.35372370004188,131.9054813000257,l,0.5484517000149935,None,634119,001,2024-11-15_16h09.24.331,delayed discounting,2024.1.5,None,2024-11-15 16h09.39.280853 +0530,
49,60,89,12,1,85,4,131.920496500039,,131.90605370001867,131.920496500039,132.9204926000093,132.9204926000093,132.9204926000093,134.75498810003046,l,1.8306395999970846,None,634119,001,2024-11-15_16h09.24.331,delayed discounting,2024.1.5,None,2024-11-15 16h09.39.280853 +0530,
40,55,62,12,2,86,3,134.77024940005504,,134.7555150000262,134.77024940005504,135.77175230003195,135.77175230003195,135.77175230003195,136.3722746000276,t,0.5977713000029325,None,634119,001,2024-11-15_16h09.24.331,delayed discounting,2024.1.5,None,2024-11-15 16h09.39.280853 +0530,
15,35,13,12,3,87,1,136.38710720004747,,136.37325650005369,136.38710720004747,137.3869102000026,137.3869102000026,137.3869102000026,138.4383737000171,t,1.0398357000085525,None,634119,001,2024-11-15_16h09.24.331,delayed discounting,2024.1.5,None,2024-11-15 16h09.39.280853 +0530,
67,75,119,12,4,88,5,138.45367570000235,,138.4390213000006,138.45367570000235,139.45385290001286,139.45385290001286,139.45385290001286,140.18785230000503,l,0.720357200014405,None,634119,001,2024-11-15_16h09.24.331,delayed discounting,2024.1.5,None,2024-11-15 16h09.39.280853 +0530,
78,80,162,12,5,89,6,140.2035990000004,,140.18870070000412,140.2035990000004,141.20452379999915,141.20452379999915,141.20452379999915,142.40736710000783,l,1.1979790999903344,None,634119,001,2024-11-15_16h09.24.331,delayed discounting,2024.1.5,None,2024-11-15 16h09.39.280853 +0530,
11,30,7,12,6,90,0,142.4201560000074,,142.40824290004093,142.4201560000074,143.4208603000152,143.4208603000152,143.4208603000152,144.4215930000064,t,0.9960612000431865,None,634119,001,2024-11-15_16h09.24.331,delayed discounting,2024.1.5,None,2024-11-15 16h09.39.280853 +0530,
11,30,7,13,0,91,0,144.4366695000208,,144.42254700005287,144.4366695000208,145.4367429999984,145.4367429999984,145.4367429999984,145.72548160003498,t,0.2777081000385806,None,634119,001,2024-11-15_16h09.24.331,delayed discounting,2024.1.5,None,2024-11-15 16h09.39.280853 +0530,
67,75,119,13,1,92,5,145.73905940004624,,145.72767290001502,145.73905940004624,146.73680140002398,146.73680140002398,146.7546713000047,147.02374550001696,l,0.28436269995290786,None,634119,001,2024-11-15_16h09.24.331,delayed discounting,2024.1.5,None,2024-11-15 16h09.39.280853 +0530,
49,60,89,13,2,93,4,147.0368926000083,,147.02509380003903,147.0368926000083,148.03671350004151,148.03671350004151,148.03671350004151,148.25502969999798,t,0.20390030002454296,None,634119,001,2024-11-15_16h09.24.331,delayed discounting,2024.1.5,None,2024-11-15 16h09.39.280853 +0530,
27,50,21,13,3,94,2,148.27022760000546,,148.25583810004173,148.27022760000546,149.2701204000041,149.2701204000041,149.2701204000041,149.28771000000415,l,0.0009468999924138188,None,634119,001,2024-11-15_16h09.24.331,delayed discounting,2024.1.5,None,2024-11-15 16h09.39.280853 +0530,
40,55,62,13,4,95,3,149.30350860004546,,149.28834640001878,149.30350860004546,150.30353190004826,150.30353190004826,150.30353190004826,151.0718460000353,t,0.7583258000086062,None,634119,001,2024-11-15_16h09.24.331,delayed discounting,2024.1.5,None,2024-11-15 16h09.39.280853 +0530,
78,80,162,13,5,96,6,151.086791800044,,151.07270460005384,151.086791800044,152.0866852000472,152.0866852000472,152.0866852000472,152.38837110000895,l,0.29881129995919764,None,634119,001,2024-11-15_16h09.24.331,delayed discounting,2024.1.5,None,2024-11-15 16h09.39.280853 +0530,
15,35,13,13,6,97,1,152.40345410001464,,152.38890620000893,152.40345410001464,153.4036692000227,153.4036692000227,153.4036692000227,153.6723428000114,l,0.2619554999982938,None,634119,001,2024-11-15_16h09.24.331,delayed discounting,2024.1.5,None,2024-11-15 16h09.39.280853 +0530,
